main-PacketCounter,main-SampleTimeFine,main-Quat_W,main-Quat_X,Quat_Y,main-Quat_Z,main-FreeAcc_X,main-FreeAcc_Y,main-FreeAcc_Z,main-Status,epaule-PacketCounter,epaule-SampleTimeFine,epaule-Quat_W,epaule-Quat_X,epaule-Quat_Y,epaule-Quat_Z,epaule-FreeAcc_X,epaule-FreeAcc_Y,epaule-FreeAcc_Z,epaule-Status,coude-PacketCounter,coude-SampleTimeFine,coude-Quat_W,Quat_X,coude-Quat_Y,coude-Quat_Z,coude-FreeAcc_X,coude-FreeAcc_Y,coude-FreeAcc_Z,coude-Status
1.0,136916542.0,0.989972,-0.009425,-0.013887,0.140266,0.04786,0.03218,0.147792,0.0,,,,,,,,,,,,,,,,,,,,
2.0,136933209.0,0.989972,-0.009415,-0.013885,0.140267,0.040523,0.024836,0.137291,0.0,,,,,,,,,,,,,,,,,,,,
3.0,136949876.0,0.989972,-0.009421,-0.013872,0.140266,0.034837,0.020722,0.144809,0.0,,,,,,,,,,,,,,,,,,,,
4.0,136966543.0,0.989974,-0.009426,-0.013875,0.14025,0.033031,0.010473,0.172123,0.0,,,,,,,,,,,,,,,,,,,,
5.0,136983210.0,0.989974,-0.009435,-0.013879,0.14025,0.023957,0.00259,0.143904,0.0,,,,,,,,,,,,,,,,,,,,
6.0,136999877.0,0.989975,-0.009433,-0.013874,0.140241,0.002521,-0.02212,0.150138,0.0,,,,,,,,,,,,,,,,,,,,
7.0,137016544.0,0.989975,-0.009436,-0.013883,0.140241,0.004954,-0.016707,0.165581,0.0,,,,,,,,,,,,,,,,,,,,
8.0,137033211.0,0.989975,-0.009438,-0.013884,0.140244,-0.008683,-0.006851,0.160765,0.0,,,,,,,,,,,,,,,,,,,,
9.0,137049878.0,0.989976,-0.009432,-0.013885,0.140235,-0.002149,-0.00486,0.12266,0.0,,,,,,,,,,,,,,,,,,,,
10.0,137066545.0,0.989976,-0.009433,-0.013891,0.140231,-0.006524,-0.001459,0.140744,0.0,,,,,,,,,,,,,,,,,,,,
11.0,137083212.0,0.989976,-0.009423,-0.013896,0.140231,-0.005319,0.036428,0.136356,0.0,,,,,,,,,,,,,,,,,,,,
12.0,137099879.0,0.989978,-0.00942,-0.013912,0.140217,-0.008865,0.033122,0.155111,0.0,,,,,,,,,,,,,,,,,,,,
13.0,137116546.0,0.989979,-0.009423,-0.013914,0.140211,0.0038,0.02191,0.164423,0.0,,,,,,,,,,,,,,,,,,,,
14.0,137133213.0,0.989978,-0.009422,-0.013923,0.140218,0.008823,0.020566,0.134798,0.0,,,,,,,,,,,,,,,,,,,,
15.0,137149880.0,0.989977,-0.00942,-0.013919,0.140223,0.04051,-0.005221,0.139652,0.0,,,,,,,,,,,,,,,,,,,,
16.0,137166547.0,0.989977,-0.009408,-0.013918,0.140226,0.025812,-0.012387,0.168045,0.0,,,,,,,,,,,,,,,,,,,,
17.0,137183214.0,0.989977,-0.009412,-0.013929,0.140225,0.020679,-0.02476,0.164114,0.0,,,,,,,,,,,,,,,,,,,,
18.0,137199881.0,0.989976,-0.009414,-0.013933,0.140229,0.01433,-0.019544,0.148407,0.0,,,,,,,,,,,,,,,,,,,,
19.0,137216548.0,0.989976,-0.009415,-0.013932,0.140231,0.009793,0.001495,0.155132,0.0,,,,,,,,,,,,,,,,,,,,
20.0,137233215.0,0.989976,-0.009406,-0.013945,0.140228,0.00352,0.020099,0.121748,0.0,,,,,,,,,,,,,,,,,,,,
21.0,137249882.0,0.989976,-0.009407,-0.013943,0.14023,-0.023283,0.039141,0.191885,0.0,,,,,,,,,,,,,,,,,,,,
22.0,137266549.0,0.989977,-0.009398,-0.013935,0.140222,-0.015035,0.041966,0.157413,0.0,,,,,,,,,,,,,,,,,,,,
23.0,137283216.0,0.989978,-0.009402,-0.013938,0.140219,-0.001757,0.027883,0.138197,0.0,,,,,,,,,,,,,,,,,,,,
24.0,137299883.0,0.989978,-0.009398,-0.013944,0.140215,-0.018632,0.003893,0.146633,0.0,,,,,,,,,,,,,,,,,,,,
25.0,137316550.0,0.989978,-0.009393,-0.013951,0.140216,-0.005258,-0.026865,0.137163,0.0,,,,,,,,,,,,,,,,,,,,
26.0,137333217.0,0.98998,-0.009395,-0.013945,0.140201,0.027349,-0.025603,0.175909,0.0,,,,,,,,,,,,,,,,,,,,
27.0,137349884.0,0.989982,-0.009393,-0.01394,0.140188,0.030766,0.006607,0.149471,0.0,,,,,,,,,,,,,,,,,,,,
28.0,137366551.0,0.989983,-0.00939,-0.013931,0.140184,0.03069,-0.017663,0.122329,0.0,,,,,,,,,,,,,,,,,,,,
29.0,137383218.0,0.989985,-0.009393,-0.013927,0.140168,0.027421,0.019418,0.137165,0.0,,,,,,,,,,,,,,,,,,,,
30.0,137399885.0,0.989984,-0.009394,-0.013937,0.140178,0.025999,0.023677,0.147132,0.0,,,,,,,,,,,,,,,,,,,,
31.0,137416552.0,0.989983,-0.009402,-0.01394,0.140182,-0.004474,0.035383,0.174923,0.0,,,,,,,,,,,,,,,,,,,,
32.0,137433219.0,0.989983,-0.009407,-0.013927,0.140183,-0.01203,0.033461,0.174712,0.0,,,,,,,,,,,,,,,,,,,,
33.0,137449886.0,0.989983,-0.009412,-0.013927,0.140185,-0.00107,0.027727,0.117421,0.0,,,,,,,,,,,,,,,,,,,,
34.0,137466553.0,0.989983,-0.009415,-0.013925,0.140183,-0.005979,-0.001823,0.13482,0.0,,,,,,,,,,,,,,,,,,,,
35.0,137483220.0,0.989984,-0.009415,-0.013932,0.140175,-0.01429,-0.023326,0.141587,0.0,,,,,,,,,,,,,,,,,,,,
36.0,137499887.0,0.989984,-0.009411,-0.013935,0.140172,-0.004073,-0.026274,0.190768,0.0,,,,,,,,,,,,,,,,,,,,
37.0,137516554.0,0.989985,-0.009412,-0.013927,0.140166,0.000423,-0.018201,0.17243,0.0,,,,,,,,,,,,,,,,,,,,
38.0,137533221.0,0.989987,-0.009408,-0.013943,0.140156,0.011851,0.001791,0.133147,0.0,,,,,,,,,,,,,,,,,,,,
39.0,137549888.0,0.989987,-0.009408,-0.013933,0.140155,0.030382,0.022885,0.149132,0.0,,,,,,,,,,,,,,,,,,,,
40.0,137566555.0,0.989986,-0.009411,-0.01393,0.14016,0.033776,0.032279,0.1397,0.0,,,,,,,,,,,,,,,,,,,,
41.0,137583222.0,0.989987,-0.009412,-0.013929,0.140156,0.041933,0.031082,0.181879,0.0,,,,,,,,,,,,,,,,,,,,
42.0,137599889.0,0.989987,-0.009407,-0.013916,0.140156,0.024597,0.024622,0.145883,0.0,,,,,,,,,,,,,,,,,,,,
43.0,137616556.0,0.989989,-0.009393,-0.013922,0.140145,0.015922,0.014779,0.167485,0.0,,,,,,,,,,,,,,,,,,,,
44.0,137633223.0,0.98999,-0.009396,-0.013918,0.140137,0.015836,-0.017159,0.159992,0.0,,,,,,,,,,,,,,,,,,,,
45.0,137649890.0,0.98999,-0.009397,-0.013928,0.140137,-0.006183,-0.027776,0.105369,0.0,,,,,,,,,,,,,,,,,,,,
46.0,137666557.0,0.989991,-0.009398,-0.013925,0.140127,-0.01324,-0.03062,0.16641,0.0,,,,,,,,,,,,,,,,,,,,
47.0,137683224.0,0.989991,-0.009403,-0.01392,0.140127,-0.021568,-0.010339,0.173111,0.0,,,,,,,,,,,,,,,,,,,,
48.0,137699891.0,0.989991,-0.009396,-0.013915,0.140128,-0.018778,0.018584,0.120263,0.0,,,,,,,,,,,,,,,,,,,,
49.0,137716558.0,0.989992,-0.009395,-0.013908,0.14012,-0.020889,0.030682,0.138699,0.0,,,,,,,,,,,,,,,,,,,,
50.0,137733225.0,0.989994,-0.009397,-0.013918,0.140109,0.005108,0.040429,0.144969,0.0,,,,,,,,,,,,,,,,,,,,
51.0,137749892.0,0.989996,-0.009396,-0.013912,0.140096,0.011131,0.012149,0.116917,0.0,,,,,,,,,,,,,,,,,,,,
52.0,137766559.0,0.989998,-0.009391,-0.013903,0.140078,0.014957,-0.012471,0.138299,0.0,,,,,,,,,,,,,,,,,,,,
53.0,137783226.0,0.99,-0.009394,-0.013884,0.140069,0.016185,-0.015836,0.153843,0.0,,,,,,,,,,,,,,,,,,,,
54.0,137799893.0,0.989999,-0.009397,-0.013889,0.140071,0.028727,-0.032933,0.127062,0.0,,,,,,,,,,,,,,,,,,,,
55.0,137816560.0,0.989999,-0.009398,-0.013877,0.140078,0.02178,-0.008793,0.105701,0.0,,,,,,,,,,,,,,,,,,,,
56.0,137833227.0,0.989999,-0.0094,-0.013873,0.140073,-0.000546,-0.007688,0.171082,0.0,,,,,,,,,,,,,,,,,,,,
57.0,137849894.0,0.99,-0.009402,-0.013874,0.140065,0.013872,0.022339,0.183777,0.0,,,,,,,,,,,,,,,,,,,,
58.0,137866561.0,0.990002,-0.0094,-0.013873,0.140054,0.009705,0.030502,0.18803,0.0,,,,,,,,,,,,,,,,,,,,
59.0,137883228.0,0.990003,-0.009404,-0.01386,0.140046,0.003717,0.029215,0.133994,0.0,,,,,,,,,,,,,,,,,,,,
60.0,137899895.0,0.990005,-0.009412,-0.013854,0.140036,0.007764,0.014057,0.028351,0.0,,,,,,,,,,,,,,,,,,,,
61.0,137916562.0,0.990006,-0.009408,-0.013845,0.140031,0.001074,-0.003203,0.275294,0.0,,,,,,,,,,,,,,,,,,,,
62.0,137933229.0,0.990004,-0.00941,-0.013873,0.140042,0.009368,-0.007775,0.114539,0.0,,,,,,,,,,,,,,,,,,,,
63.0,137949896.0,0.990004,-0.009402,-0.013856,0.140045,0.019648,-0.016288,0.148826,0.0,,,,,,,,,,,,,,,,,,,,
64.0,137966563.0,0.990004,-0.009398,-0.013855,0.140044,0.010513,-0.001721,0.245103,0.0,,,,,,,,,,,,,,,,,,,,
65.0,137983230.0,0.990004,-0.009408,-0.013862,0.140042,0.042246,0.006141,0.084995,0.0,,,,,,,,,,,,,,,,,,,,
66.0,137999897.0,0.990004,-0.009406,-0.013839,0.14004,0.009086,0.009319,0.346112,0.0,,,,,,,,,,,,,,,,,,,,
67.0,138016564.0,0.990006,-0.009414,-0.013858,0.140029,0.023401,0.031307,0.015429,0.0,,,,,,,,,,,,,,,,,,,,
68.0,138033231.0,0.990007,-0.009408,-0.013841,0.140025,0.001991,0.015021,0.060551,0.0,,,,,,,,,,,,,,,,,,,,
69.0,138049898.0,0.990006,-0.009405,-0.013852,0.140029,0.001894,-0.001087,0.285406,0.0,,,,,,,,,,,,,,,,,,,,
70.0,138066565.0,0.990006,-0.009406,-0.013851,0.140029,0.024478,0.014249,0.034825,0.0,,,,,,,,,,,,,,,,,,,,
71.0,138083232.0,0.990007,-0.009395,-0.013854,0.140023,0.002921,0.004037,0.234313,0.0,,,,,,,,,,,,,,,,,,,,
72.0,138099899.0,0.990006,-0.00939,-0.013857,0.140032,0.013359,-0.011217,0.113688,0.0,,,,,,,,,,,,,,,,,,,,
73.0,138116566.0,0.990007,-0.00939,-0.013847,0.14002,0.016927,-0.005118,0.108712,0.0,,,,,,,,,,,,,,,,,,,,
74.0,138133233.0,0.990008,-0.009382,-0.013849,0.140013,0.004166,-0.002158,0.179999,0.0,,,,,,,,,,,,,,,,,,,,
75.0,138149900.0,0.99001,-0.009382,-0.013861,0.140004,-0.003558,0.001495,0.146307,0.0,,,,,,,,,,,,,,,,,,,,
76.0,138166567.0,0.990011,-0.009379,-0.013864,0.139994,0.00053,0.010715,0.164506,0.0,,,,,,,,,,,,,,,,,,,,
77.0,138183234.0,0.99001,-0.009379,-0.013865,0.140001,0.013098,0.012183,0.135056,0.0,,,,,,,,,,,,,,,,,,,,
78.0,138199901.0,0.990009,-0.009376,-0.013856,0.140008,0.022438,0.02349,0.153639,0.0,,,,,,,,,,,,,,,,,,,,
79.0,138216568.0,0.990008,-0.009373,-0.01386,0.140015,0.024151,0.009948,0.135961,0.0,,,,,,,,,,,,,,,,,,,,
80.0,138233235.0,0.990009,-0.009381,-0.01385,0.140009,0.022521,0.011572,0.127151,0.0,,,,,,,,,,,,,,,,,,,,
81.0,138249902.0,0.99001,-0.009374,-0.013844,0.140003,0.013463,0.00286,0.198633,0.0,,,,,,,,,,,,,,,,,,,,
82.0,138266569.0,0.990011,-0.009373,-0.01384,0.139998,0.023729,-0.008967,0.112101,0.0,,,,,,,,,,,,,,,,,,,,
83.0,138283236.0,0.990011,-0.009379,-0.013831,0.139996,0.00919,-0.005388,0.173092,0.0,,,,,,,,,,,,,,,,,,,,
84.0,138299903.0,0.990011,-0.009383,-0.013831,0.139996,0.007179,-0.014503,0.165768,0.0,,,,,,,,,,,,,,,,,,,,
85.0,138316570.0,0.99001,-0.00938,-0.01383,0.14,-0.000241,0.009465,0.144367,0.0,,,,,,,,,,,,,,,,,,,,
86.0,138333237.0,0.990011,-0.009381,-0.013831,0.14,0.01508,0.014876,0.151735,0.0,,,,,,,,,,,,,,,,,,,,
87.0,138349904.0,0.99001,-0.009375,-0.013834,0.140002,-0.000992,0.0142,0.145947,0.0,,,,,,,,,,,,,,,,,,,,
88.0,138366571.0,0.990012,-0.009382,-0.013824,0.139993,0.006905,0.031435,0.155763,0.0,,,,,,,,,,,,,,,,,,,,
89.0,138383238.0,0.990012,-0.009384,-0.013825,0.139989,0.00566,0.011427,0.151881,0.0,,,,,,,,,,,,,,,,,,,,
90.0,138399905.0,0.990014,-0.009384,-0.013814,0.139976,0.013848,0.011276,0.157392,0.0,,,,,,,,,,,,,,,,,,,,
91.0,138416572.0,0.990014,-0.009385,-0.013822,0.139977,0.005768,-0.00284,0.153494,0.0,,,,,,,,,,,,,,,,,,,,
92.0,138433239.0,0.990015,-0.009377,-0.013815,0.139973,0.008594,-0.005608,0.169297,0.0,,,,,,,,,,,,,,,,,,,,
93.0,138449906.0,0.990015,-0.009379,-0.013809,0.139967,0.020455,0.002347,0.137774,0.0,,,,,,,,,,,,,,,,,,,,
94.0,138466573.0,0.990016,-0.009377,-0.013815,0.139965,0.010265,0.021722,0.1981,0.0,,,,,,,,,,,,,,,,,,,,
95.0,138483240.0,0.990016,-0.009363,-0.013811,0.139966,0.017805,0.019917,0.159225,0.0,,,,,,,,,,,,,,,,,,,,
96.0,138499907.0,0.990008,-0.009478,-0.013884,0.140007,0.01298,0.004583,0.139804,0.0,,,,,,,,,,,,,,,,,,,,
97.0,138516574.0,0.99001,-0.009487,-0.01389,0.139994,0.009173,0.01907,0.163293,0.0,,,,,,,,,,,,,,,,,,,,
98.0,138533241.0,0.99001,-0.009479,-0.013878,0.139991,0.012038,0.003021,0.172958,0.0,,,,,,,,,,,,,,,,,,,,
99.0,138549908.0,0.990011,-0.00948,-0.013886,0.139982,0.000795,0.002456,0.132907,0.0,,,,,,,,,,,,,,,,,,,,
100.0,138566575.0,0.99001,-0.009482,-0.013891,0.139989,0.00082,-0.002196,0.12397,0.0,,,,,,,,,,,,,,,,,,,,
101.0,138583242.0,0.990012,-0.009481,-0.013894,0.139979,-0.002905,-0.000426,0.174411,0.0,,,,,,,,,,,,,,,,,,,,
102.0,138599909.0,0.990012,-0.009483,-0.013896,0.139975,0.010688,0.008113,0.144746,0.0,,,,,,,,,,,,,,,,,,,,
103.0,138616576.0,0.990011,-0.00948,-0.013896,0.139983,0.010513,0.021901,0.13135,0.0,,,,,,,,,,,,,,,,,,,,
104.0,138633243.0,0.990012,-0.00949,-0.013889,0.139979,0.000588,0.021159,0.141551,0.0,,,,,,,,,,,,,,,,,,,,
105.0,138649910.0,0.990013,-0.009489,-0.01389,0.13997,0.01641,0.011246,0.141972,0.0,,,,,,,,,,,,,,,,,,,,
106.0,138666577.0,0.990014,-0.009485,-0.013892,0.139958,0.006861,0.021455,0.139859,0.0,,,,,,,,,,,,,,,,,,,,
107.0,138683244.0,0.990014,-0.009485,-0.013886,0.139961,0.021399,0.018325,0.175663,0.0,,,,,,,,,,,,,,,,,,,,
108.0,138699911.0,0.990013,-0.009482,-0.013888,0.139971,0.008998,0.004974,0.163349,0.0,,,,,,,,,,,,,,,,,,,,
109.0,138716578.0,0.990013,-0.009482,-0.013883,0.139968,0.005756,0.006042,0.152957,0.0,,,,,,,,,,,,,,,,,,,,
110.0,138733245.0,0.990013,-0.009487,-0.013875,0.139972,0.006848,0.003088,0.139915,0.0,,,,,,,,,,,,,,,,,,,,
111.0,138749912.0,0.990014,-0.009489,-0.013876,0.139964,0.005074,-0.004587,0.142979,0.0,,,,,,,,,,,,,,,,,,,,
112.0,138766579.0,0.990014,-0.009488,-0.013894,0.139961,0.001601,-0.003615,0.182735,0.0,,,,,,,,,,,,,,,,,,,,
113.0,138783246.0,0.990014,-0.009486,-0.013898,0.13996,-0.001508,0.007655,0.173237,0.0,,,,,,,,,,,,,,,,,,,,
114.0,138799913.0,0.990016,-0.009486,-0.013895,0.139951,-0.000359,0.006918,0.144029,0.0,,,,,,,,,,,,,,,,,,,,
115.0,138816580.0,0.990016,-0.009478,-0.013895,0.139947,-0.006682,0.020744,0.16975,0.0,,,,,,,,,,,,,,,,,,,,
116.0,138833247.0,0.990017,-0.009482,-0.013896,0.139942,0.016325,0.023433,0.152891,0.0,,,,,,,,,,,,,,,,,,,,
117.0,138849914.0,0.990017,-0.009484,-0.013893,0.139941,0.006203,0.016176,0.153626,0.0,,,,,,,,,,,,,,,,,,,,
118.0,138866581.0,0.990017,-0.009487,-0.013892,0.139942,0.005254,0.011844,0.148513,0.0,,,,,,,,,,,,,,,,,,,,
119.0,138883248.0,0.990016,-0.009483,-0.013905,0.139951,0.008395,-0.00686,0.124397,0.0,,,,,,,,,,,,,,,,,,,,
120.0,138899915.0,0.990016,-0.00949,-0.013916,0.139946,0.018264,-0.002184,0.143778,0.0,,,,,,,,,,,,,,,,,,,,
121.0,138916582.0,0.990016,-0.009486,-0.013908,0.139948,0.008461,0.002553,0.133743,0.0,,,,,,,,,,,,,,,,,,,,
122.0,138933249.0,0.990016,-0.009483,-0.013895,0.139951,0.018539,-0.001414,0.152225,0.0,,,,,,,,,,,,,,,,,,,,
123.0,138949916.0,0.990016,-0.009475,-0.013895,0.139947,0.007881,-0.007572,0.149366,0.0,,,,,,,,,,,,,,,,,,,,
124.0,138966583.0,0.990017,-0.009471,-0.013894,0.139945,0.01049,0.018056,0.123474,0.0,,,,,,,,,,,,,,,,,,,,
125.0,138983250.0,0.990018,-0.009471,-0.013899,0.139934,0.020482,0.013154,0.147525,0.0,,,,,,,,,,,,,,,,,,,,
126.0,138999917.0,0.990019,-0.009481,-0.013895,0.139928,0.014393,0.008782,0.152258,0.0,,,,,,,,,,,,,,,,,,,,
127.0,139016584.0,0.990019,-0.009482,-0.013899,0.139926,0.003405,0.011736,0.143868,0.0,,,,,,,,,,,,,,,,,,,,
128.0,139033251.0,0.990019,-0.009479,-0.013905,0.139926,-0.000797,0.021541,0.141166,0.0,,,,,,,,,,,,,,,,,,,,
129.0,139049918.0,0.99002,-0.009479,-0.013902,0.139916,0.000838,0.008426,0.14209,0.0,,,,,,,,,,,,,,,,,,,,
130.0,139066585.0,0.990021,-0.009477,-0.013897,0.139913,0.009611,0.004845,0.16219,0.0,,,,,,,,,,,,,,,,,,,,
131.0,139083252.0,0.99002,-0.009485,-0.013887,0.139918,-0.004302,-0.001521,0.157206,0.0,,,,,,,,,,,,,,,,,,,,
132.0,139099919.0,0.990019,-0.009487,-0.013887,0.139926,0.003465,0.020258,0.156941,0.0,,,,,,,,,,,,,,,,,,,,
133.0,139116586.0,0.99002,-0.009491,-0.013891,0.13992,0.001905,-0.000427,0.153691,0.0,,,,,,,,,,,,,,,,,,,,
134.0,139133253.0,0.99002,-0.009483,-0.013897,0.13992,0.02082,-0.000989,0.144358,0.0,,,,,,,,,,,,,,,,,,,,
135.0,139149920.0,0.99002,-0.009484,-0.013902,0.139921,0.004042,0.015956,0.128824,0.0,,,,,,,,,,,,,,,,,,,,
136.0,139166587.0,0.990021,-0.009482,-0.013899,0.139915,0.020273,0.016651,0.163111,0.0,,,,,,,,,,,,,,,,,,,,
137.0,139183254.0,0.990021,-0.009471,-0.0139,0.139915,0.021776,0.016041,0.154923,0.0,,,,,,,,,,,,,,,,,,,,
138.0,139199921.0,0.990021,-0.009469,-0.013898,0.139913,0.014815,0.010859,0.14828,0.0,,,,,,,,,,,,,,,,,,,,
139.0,139216588.0,0.99002,-0.009476,-0.013902,0.139919,0.006122,-0.000718,0.136211,0.0,,,,,,,,,,,,,,,,,,,,
140.0,139233255.0,0.990021,-0.009472,-0.013893,0.139916,-0.001716,0.016323,0.144554,0.0,,,,,,,,,,,,,,,,,,,,
141.0,139249922.0,0.990021,-0.009471,-0.013884,0.139916,0.014618,0.012961,0.15889,0.0,,,,,,,,,,,,,,,,,,,,
142.0,139266589.0,0.99002,-0.009473,-0.013879,0.13992,0.002258,0.001462,0.148444,0.0,,,,,,,,,,,,,,,,,,,,
143.0,139283256.0,0.990021,-0.009478,-0.013875,0.139914,0.007166,0.00503,0.131954,0.0,,,,,,,,,,,,,,,,,,,,
144.0,139299923.0,0.990021,-0.009475,-0.013877,0.139911,0.016195,0.015106,0.125328,0.0,,,,,,,,,,,,,,,,,,,,
145.0,139316590.0,0.990021,-0.009478,-0.013873,0.139917,0.016337,0.008191,0.143417,0.0,,,,,,,,,,,,,,,,,,,,
146.0,139333257.0,0.990022,-0.009484,-0.013873,0.139909,0.007812,0.004963,0.171248,0.0,,,,,,,,,,,,,,,,,,,,
147.0,139349924.0,0.990024,-0.009484,-0.013874,0.139896,0.025881,0.000167,0.162765,0.0,,,,,,,,,,,,,,,,,,,,
148.0,139366591.0,0.990025,-0.009476,-0.013868,0.139886,0.02708,-0.006683,0.119523,0.0,,,,,,,,,,,,,,,,,,,,
149.0,139383258.0,0.990024,-0.009467,-0.013869,0.139892,0.006526,0.000727,0.128312,0.0,,,,,,,,,,,,,,,,,,,,
150.0,139399925.0,0.990023,-0.00946,-0.013874,0.139901,0.026731,0.022716,0.157242,0.0,,,,,,,,,,,,,,,,,,,,
151.0,139416592.0,0.990023,-0.009462,-0.013866,0.139904,0.011302,0.022003,0.128002,0.0,,,,,,,,,,,,,,,,,,,,
152.0,139433259.0,0.990024,-0.009467,-0.013873,0.139896,0.01117,0.008296,0.126099,0.0,,,,,,,,,,,,,,,,,,,,
153.0,139449926.0,0.990023,-0.009467,-0.013871,0.139899,0.005334,0.002421,0.156379,0.0,,,,,,,,,,,,,,,,,,,,
154.0,139466593.0,0.990023,-0.00947,-0.013865,0.139903,-0.00316,-0.004885,0.175503,0.0,,,,,,,,,,,,,,,,,,,,
155.0,139483260.0,0.990023,-0.009479,-0.013857,0.139904,0.00183,-0.002298,0.15227,0.0,,,,,,,,,,,,,,,,,,,,
156.0,139499927.0,0.990023,-0.009487,-0.013857,0.139899,0.013134,0.009387,0.139659,0.0,,,,,,,,,,,,,,,,,,,,
157.0,139516594.0,0.990022,-0.009484,-0.01387,0.139904,0.015907,-0.005077,0.14514,0.0,,,,,,,,,,,,,,,,,,,,
158.0,139533261.0,0.990023,-0.009478,-0.013862,0.139901,0.015819,0.008997,0.173323,0.0,,,,,,,,,,,,,,,,,,,,
159.0,139549928.0,0.990024,-0.009483,-0.013861,0.139894,0.018887,0.016517,0.158766,0.0,,,,,,,,,,,,,,,,,,,,
160.0,139566595.0,0.990025,-0.009484,-0.013855,0.13989,0.024205,0.016288,0.151941,0.0,,,,,,,,,,,,,,,,,,,,
161.0,139583262.0,0.990025,-0.00948,-0.013844,0.139892,0.022595,0.017649,0.146064,0.0,,,,,,,,,,,,,,,,,,,,
162.0,139599929.0,0.990025,-0.009485,-0.013826,0.139893,0.00499,0.01146,0.158556,0.0,,,,,,,,,,,,,,,,,,,,
163.0,139616596.0,0.990024,-0.009485,-0.013824,0.1399,-0.001512,0.006518,0.175577,0.0,,,,,,,,,,,,,,,,,,,,
164.0,139633263.0,0.990023,-0.009487,-0.013821,0.139903,-0.001345,0.016965,0.149324,0.0,,,,,,,,,,,,,,,,,,,,
165.0,139649930.0,0.990023,-0.009485,-0.013826,0.139901,0.015966,-0.001649,0.147753,0.0,,,,,,,,,,,,,,,,,,,,
166.0,139666597.0,0.990024,-0.009481,-0.013811,0.139901,0.004341,0.008071,0.146564,0.0,,,,,,,,,,,,,,,,,,,,
167.0,139683264.0,0.990025,-0.009475,-0.013813,0.139889,0.011364,0.021648,0.156476,0.0,,,,,,,,,,,,,,,,,,,,
168.0,139699931.0,0.990026,-0.009475,-0.013817,0.139886,0.015346,0.007251,0.144726,0.0,,,,,,,,,,,,,,,,,,,,
169.0,139716598.0,0.990027,-0.009474,-0.013806,0.139879,0.009427,0.020909,0.171788,0.0,,,,,,,,,,,,,,,,,,,,
170.0,139733265.0,0.990027,-0.009472,-0.013809,0.139877,0.01568,0.009438,0.153963,0.0,,,,,,,,,,,,,,,,,,,,
171.0,139749932.0,0.990028,-0.009474,-0.013801,0.139873,0.010103,0.024477,0.137033,0.0,,,,,,,,,,,,,,,,,,,,
172.0,139766599.0,0.990029,-0.00948,-0.013794,0.139863,0.0164,0.011157,0.135704,0.0,,,,,,,,,,,,,,,,,,,,
173.0,139783266.0,0.990031,-0.009477,-0.013788,0.139856,0.019943,0.007854,0.168178,0.0,,,,,,,,,,,,,,,,,,,,
174.0,139799933.0,0.990032,-0.009482,-0.013798,0.139845,0.006147,0.006208,0.15114,0.0,,,,,,,,,,,,,,,,,,,,
175.0,139816600.0,0.990033,-0.009484,-0.013799,0.13984,0.011304,-0.001997,0.167529,0.0,,,,,,,,,,,,,,,,,,,,
176.0,139833267.0,0.990032,-0.009486,-0.013797,0.139847,0.010934,0.005126,0.142574,0.0,,,,,,,,,,,,,,,,,,,,
177.0,139849934.0,0.990033,-0.00948,-0.013806,0.139834,0.005146,0.003348,0.151746,0.0,,,,,,,,,,,,,,,,,,,,
178.0,139866601.0,0.990034,-0.009478,-0.013813,0.13983,0.005438,0.003918,0.166718,0.0,,,,,,,,,,,,,,,,,,,,
179.0,139883268.0,0.990034,-0.009471,-0.013818,0.139827,0.008239,0.015961,0.136015,0.0,,,,,,,,,,,,,,,,,,,,
180.0,139899935.0,0.990034,-0.009469,-0.01382,0.139831,0.005054,0.007991,0.155223,0.0,,,,,,,,,,,,,,,,,,,,
181.0,139916602.0,0.990035,-0.009478,-0.013818,0.139824,0.003085,0.000493,0.151607,0.0,,,,,,,,,,,,,,,,,,,,
182.0,139933269.0,0.990034,-0.00948,-0.01381,0.139826,0.011434,-0.000296,0.165011,0.0,,,,,,,,,,,,,,,,,,,,
183.0,139949936.0,0.990035,-0.009474,-0.013805,0.139824,0.022974,0.016407,0.168843,0.0,,,,,,,,,,,,,,,,,,,,
184.0,139966603.0,0.990036,-0.009476,-0.013803,0.139813,0.008208,0.02135,0.160926,0.0,,,,,,,,,,,,,,,,,,,,
185.0,139983270.0,0.990035,-0.009476,-0.013805,0.139822,0.012566,0.024644,0.154351,0.0,,,,,,,,,,,,,,,,,,,,
186.0,139999937.0,0.990037,-0.009474,-0.013806,0.139806,0.013157,0.016422,0.121088,0.0,,,,,,,,,,,,,,,,,,,,
187.0,140016604.0,0.990039,-0.009475,-0.013799,0.139795,0.005536,-0.006741,0.152538,0.0,,,,,,,,,,,,,,,,,,,,
188.0,140033271.0,0.990039,-0.009468,-0.013797,0.139798,0.01647,-0.002178,0.145991,0.0,,,,,,,,,,,,,,,,,,,,
189.0,140049938.0,0.990039,-0.009464,-0.013795,0.139796,0.008017,-0.003933,0.165742,0.0,,,,,,,,,,,,,,,,,,,,
190.0,140066605.0,0.990038,-0.009459,-0.013792,0.139804,0.015124,-0.001919,0.133317,0.0,,,,,,,,,,,,,,,,,,,,
191.0,140083272.0,0.990038,-0.009458,-0.013799,0.139803,0.004679,0.017054,0.155511,0.0,,,,,,,,,,,,,,,,,,,,
192.0,140099939.0,0.990038,-0.009457,-0.013793,0.139804,0.004309,0.009822,0.152651,0.0,,,,,,,,,,,,,,,,,,,,
193.0,140116606.0,0.990039,-0.009455,-0.013802,0.139796,0.006195,0.003569,0.150701,0.0,,,,,,,,,,,,,,,,,,,,
194.0,140133273.0,0.99004,-0.009451,-0.013811,0.139787,0.003508,-0.004687,0.177425,0.0,,,,,,,,,,,,,,,,,,,,
195.0,140149940.0,0.990042,-0.009452,-0.013812,0.139774,0.016935,-0.006101,0.161303,0.0,,,,,,,,,,,,,,,,,,,,
196.0,140166607.0,0.990042,-0.009438,-0.0138,0.139773,0.005517,1.4e-05,0.149613,0.0,,,,,,,,,,,,,,,,,,,,
197.0,140183274.0,0.990043,-0.00944,-0.013799,0.13977,0.015103,0.007883,0.146108,0.0,,,,,,,,,,,,,,,,,,,,
198.0,140199941.0,0.990043,-0.009443,-0.013799,0.139771,0.020682,0.016819,0.135395,0.0,,,,,,,,,,,,,,,,,,,,
199.0,140216608.0,0.990043,-0.009436,-0.013801,0.139772,0.025299,0.017583,0.156354,0.0,,,,,,,,,,,,,,,,,,,,
200.0,140233275.0,0.990043,-0.00943,-0.013801,0.139769,0.018403,0.012943,0.153798,0.0,,,,,,,,,,,,,,,,,,,,
201.0,140249942.0,0.990045,-0.009433,-0.013794,0.139755,0.002278,0.011562,0.158459,0.0,,,,,,,,,,,,,,,,,,,,
202.0,140266609.0,0.990043,-0.009436,-0.013787,0.139768,0.000268,0.005332,0.156762,0.0,,,,,,,,,,,,,,,,,,,,
203.0,140283276.0,0.990045,-0.009438,-0.013787,0.139753,0.02122,0.008001,0.139897,0.0,,,,,,,,,,,,,,,,,,,,
204.0,140299943.0,0.990046,-0.009441,-0.01378,0.139752,-0.010764,0.002911,0.144616,0.0,,,,,,,,,,,,,,,,,,,,
205.0,140316610.0,0.990045,-0.009458,-0.013776,0.139756,0.007362,0.002369,0.14185,0.0,,,,,,,,,,,,,,,,,,,,
206.0,140333277.0,0.990045,-0.009466,-0.013758,0.139759,-0.004842,0.000873,0.142612,0.0,,,,,,,,,,,,,,,,,,,,
207.0,140349944.0,0.990044,-0.009463,-0.013759,0.139765,0.00118,0.012719,0.13704,0.0,,,,,,,,,,,,,,,,,,,,
208.0,140366611.0,0.990045,-0.009461,-0.013751,0.139759,0.010771,0.014229,0.152073,0.0,,,,,,,,,,,,,,,,,,,,
209.0,140383278.0,0.990045,-0.009463,-0.013752,0.139757,0.011761,0.021667,0.141919,0.0,,,,,,,,,,,,,,,,,,,,
210.0,140399945.0,0.990045,-0.009456,-0.013754,0.139755,0.008764,0.007822,0.148738,0.0,,,,,,,,,,,,,,,,,,,,
211.0,140416612.0,0.990046,-0.009462,-0.013748,0.139753,0.013366,0.000823,0.153646,0.0,,,,,,,,,,,,,,,,,,,,
212.0,140433279.0,0.990046,-0.009463,-0.01374,0.139751,0.011681,0.000308,0.164589,0.0,,,,,,,,,,,,,,,,,,,,
213.0,140449946.0,0.990046,-0.009449,-0.013732,0.139755,0.00533,-0.01934,0.144811,0.0,,,,,,,,,,,,,,,,,,,,
214.0,140466613.0,0.990044,-0.009436,-0.013719,0.139768,-0.013705,-0.006182,0.148443,0.0,,,,,,,,,,,,,,,,,,,,
215.0,140483280.0,0.990044,-0.009432,-0.013698,0.139772,-0.019035,-0.004704,0.11767,0.0,,,,,,,,,,,,,,,,,,,,
216.0,140499947.0,0.990051,-0.009486,-0.013813,0.139709,0.000201,0.031506,0.172035,0.0,,,,,,,,,,,,,,,,,,,,
217.0,140516614.0,0.990053,-0.009485,-0.013818,0.139696,0.007126,0.028627,0.157249,0.0,,,,,,,,,,,,,,,,,,,,
218.0,140533281.0,0.990053,-0.00948,-0.013825,0.139691,0.04791,0.019322,0.165452,0.0,,,,,,,,,,,,,,,,,,,,
219.0,140549948.0,0.990055,-0.009473,-0.013819,0.139677,0.051017,0.022864,0.1675,0.0,,,,,,,,,,,,,,,,,,,,
220.0,140566615.0,0.990058,-0.009478,-0.013804,0.139661,0.046563,0.009057,0.13938,0.0,,,,,,,,,,,,,,,,,,,,
221.0,140583282.0,0.990059,-0.009472,-0.013809,0.13965,0.037641,0.002257,0.164433,0.0,,,,,,,,,,,,,,,,,,,,
222.0,140599949.0,0.990058,-0.009477,-0.013802,0.139659,0.025782,-0.01909,0.150564,0.0,,,,,,,,,,,,,,,,,,,,
223.0,140616616.0,0.990058,-0.009472,-0.013807,0.139664,0.013577,-0.008561,0.150849,0.0,,,,,,,,,,,,,,,,,,,,
224.0,140633283.0,0.990056,-0.009478,-0.013807,0.139672,-0.013621,0.010743,0.164886,0.0,,,,,,,,,,,,,,,,,,,,
225.0,140649950.0,0.990055,-0.009481,-0.013814,0.139679,-0.018738,0.022457,0.127409,0.0,,,,,,,,,,,,,,,,,,,,
226.0,140666617.0,0.990053,-0.00948,-0.013817,0.139692,-0.026076,0.024104,0.154448,0.0,,,,,,,,,,,,,,,,,,,,
227.0,140683284.0,0.990054,-0.00948,-0.013807,0.13969,-0.024047,0.026032,0.153186,0.0,,,,,,,,,,,,,,,,,,,,
228.0,140699951.0,0.990055,-0.009477,-0.013803,0.139679,-0.020003,0.032941,0.164919,0.0,,,,,,,,,,,,,,,,,,,,
229.0,140716618.0,0.990056,-0.009484,-0.013814,0.139672,-0.007147,-0.004004,0.143688,0.0,,,,,,,,,,,,,,,,,,,,
230.0,140733285.0,0.990057,-0.009485,-0.01381,0.139667,0.013865,-0.008874,0.132395,0.0,,,,,,,,,,,,,,,,,,,,
231.0,140749952.0,0.990057,-0.009481,-0.013821,0.139665,0.042062,0.002076,0.166594,0.0,,,,,,,,,,,,,,,,,,,,
232.0,140766619.0,0.990056,-0.009488,-0.01382,0.139669,0.056086,0.006732,0.141731,0.0,,,,,,,,,,,,,,,,,,,,
233.0,140783286.0,0.990056,-0.009481,-0.013829,0.139668,0.058145,0.014741,0.154253,0.0,,,,,,,,,,,,,,,,,,,,
234.0,140799953.0,0.990059,-0.009476,-0.013831,0.139651,0.033612,0.016353,0.151929,0.0,,,,,,,,,,,,,,,,,,,,
235.0,140816620.0,0.99006,-0.009481,-0.01383,0.139644,0.022786,0.019358,0.162671,0.0,,,,,,,,,,,,,,,,,,,,
236.0,140833287.0,0.990062,-0.009483,-0.013834,0.139631,0.001476,0.016879,0.137519,0.0,,,,,,,,,,,,,,,,,,,,
237.0,140849954.0,0.990063,-0.009473,-0.013822,0.139623,-0.00853,0.02015,0.170158,0.0,,,,,,,,,,,,,,,,,,,,
238.0,140866621.0,0.990063,-0.009466,-0.013825,0.139621,-0.022746,-0.003133,0.149269,0.0,,,,,,,,,,,,,,,,,,,,
239.0,140883288.0,0.990063,-0.009463,-0.013823,0.139622,0.00497,0.011988,0.172774,0.0,,,,,,,,,,,,,,,,,,,,
240.0,140899955.0,0.990062,-0.009463,-0.013817,0.139629,-0.020768,0.003558,0.16189,0.0,,,,,,,,,,,,,,,,,,,,
241.0,140916622.0,0.990063,-0.009459,-0.013817,0.139624,0.002456,-0.001808,0.131628,0.0,,,,,,,,,,,,,,,,,,,,
242.0,140933289.0,0.990063,-0.009463,-0.013808,0.139628,0.018367,0.002263,0.141801,0.0,,,,,,,,,,,,,,,,,,,,
243.0,140949956.0,0.990062,-0.009464,-0.01381,0.139633,0.027984,0.013144,0.158529,0.0,,,,,,,,,,,,,,,,,,,,
244.0,140966623.0,0.990063,-0.009466,-0.013801,0.139624,0.024396,0.01412,0.165458,0.0,,,,,,,,,,,,,,,,,,,,
245.0,140983290.0,0.990064,-0.009455,-0.013803,0.139618,0.035445,0.023197,0.143142,0.0,,,,,,,,,,,,,,,,,,,,
246.0,140999957.0,0.990063,-0.009467,-0.013798,0.139624,0.033678,0.026383,0.142638,0.0,,,,,,,,,,,,,,,,,,,,
247.0,141016624.0,0.990063,-0.009465,-0.01379,0.139627,0.033043,0.024862,0.143405,0.0,,,,,,,,,,,,,,,,,,,,
248.0,141033291.0,0.990062,-0.009476,-0.013784,0.13963,0.010701,0.016377,0.152395,0.0,,,,,,,,,,,,,,,,,,,,
249.0,141049958.0,0.990063,-0.009488,-0.013775,0.139626,0.012499,0.007588,0.168498,0.0,,,,,,,,,,,,,,,,,,,,
250.0,141066625.0,0.990064,-0.009496,-0.013763,0.139617,-0.006294,-0.012621,0.136515,0.0,,,,,,,,,,,,,,,,,,,,
251.0,141083292.0,0.990065,-0.00949,-0.013772,0.13961,-0.017111,-0.012869,0.139347,0.0,,,,,,,,,,,,,,,,,,,,
252.0,141099959.0,0.990066,-0.009487,-0.013768,0.139603,-0.011162,-0.019675,0.151098,0.0,,,,,,,,,,,,,,,,,,,,
253.0,141116626.0,0.990068,-0.009484,-0.013765,0.139594,-0.004975,0.010504,0.160014,0.0,,,,,,,,,,,,,,,,,,,,
254.0,141133293.0,0.990068,-0.009481,-0.013765,0.139595,-0.007811,0.020454,0.155795,0.0,,,,,,,,,,,,,,,,,,,,
255.0,141149960.0,0.990067,-0.009482,-0.013764,0.1396,0.013256,0.04185,0.14742,0.0,,,,,,,,,,,,,,,,,,,,
256.0,141166627.0,0.990068,-0.009477,-0.013759,0.139592,0.030959,0.031662,0.162838,0.0,,,,,,,,,,,,,,,,,,,,
257.0,141183294.0,0.990069,-0.009473,-0.013756,0.139586,0.051449,0.026361,0.165298,0.0,,,,,,,,,,,,,,,,,,,,
258.0,141199961.0,0.990069,-0.009475,-0.013755,0.139583,0.035808,0.019087,0.148969,0.0,,,,,,,,,,,,,,,,,,,,
259.0,141216628.0,0.990069,-0.009479,-0.013742,0.139586,0.027375,-0.002468,0.145821,0.0,,,,,,,,,,,,,,,,,,,,
260.0,141233295.0,0.990069,-0.009473,-0.013745,0.139586,0.029051,-0.00449,0.126776,0.0,,,,,,,,,,,,,,,,,,,,
261.0,141249962.0,0.990068,-0.009476,-0.01374,0.139599,0.031671,-0.001815,0.13212,0.0,,,,,,,,,,,,,,,,,,,,
262.0,141266629.0,0.990068,-0.009475,-0.01375,0.139597,0.007105,0.000939,0.142941,0.0,,,,,,,,,,,,,,,,,,,,
263.0,141283296.0,0.990066,-0.009479,-0.01374,0.139606,-0.002278,0.013329,0.160786,0.0,,,,,,,,,,,,,,,,,,,,
264.0,141299963.0,0.990066,-0.009486,-0.013727,0.139612,-0.011912,0.033874,0.139523,0.0,,,,,,,,,,,,,,,,,,,,
265.0,141316630.0,0.990066,-0.009486,-0.013723,0.139608,-0.023415,0.023533,0.162143,0.0,,,,,,,,,,,,,,,,,,,,
266.0,141333297.0,0.990068,-0.009475,-0.013725,0.1396,-0.002437,0.020037,0.144107,0.0,,,,,,,,,,,,,,,,,,,,
267.0,141349964.0,0.99007,-0.00947,-0.01372,0.139586,-0.006308,0.031726,0.151342,0.0,,,,,,,,,,,,,,,,,,,,
268.0,141366631.0,0.990071,-0.009468,-0.013719,0.139576,-6e-06,0.007659,0.143931,0.0,,,,,,,,,,,,,,,,,,,,
269.0,141383298.0,0.990071,-0.00947,-0.01371,0.139579,0.033374,-0.010114,0.152651,0.0,,,,,,,,,,,,,,,,,,,,
270.0,141399965.0,0.990071,-0.009467,-0.013705,0.139575,0.041515,-0.023012,0.163584,0.0,,,,,,,,,,,,,,,,,,,,
271.0,141416632.0,0.990072,-0.00946,-0.013703,0.139572,0.042795,-0.011496,0.171663,0.0,,,,,,,,,,,,,,,,,,,,
272.0,141433299.0,0.990072,-0.009452,-0.013698,0.139572,0.047705,-0.006203,0.162074,0.0,,,,,,,,,,,,,,,,,,,,
273.0,141449966.0,0.990071,-0.009453,-0.013704,0.139577,0.022802,0.018827,0.192609,0.0,,,,,,,,,,,,,,,,,,,,
274.0,141466633.0,0.990072,-0.009449,-0.013692,0.139571,0.02763,0.018886,0.132048,0.0,,,,,,,,,,,,,,,,,,,,
275.0,141483300.0,0.990072,-0.009454,-0.013683,0.139573,-0.001475,0.041001,0.154746,0.0,,,,,,,,,,,,,,,,,,,,
276.0,141499967.0,0.990074,-0.00946,-0.013679,0.139559,-0.004147,0.028271,0.172586,0.0,,,,,,,,,,,,,,,,,,,,
277.0,141516634.0,0.990074,-0.009456,-0.013678,0.139562,-0.012463,0.009568,0.146694,0.0,,,,,,,,,,,,,,,,,,,,
278.0,141533301.0,0.990074,-0.009451,-0.013683,0.139564,-0.013427,0.004662,0.166905,0.0,,,,,,,,,,,,,,,,,,,,
279.0,141549968.0,0.990074,-0.009451,-0.013688,0.13956,-0.017309,0.003065,0.136066,0.0,,,,,,,,,,,,,,,,,,,,
280.0,141566635.0,0.990074,-0.009444,-0.013685,0.139561,-0.009489,-0.008899,0.159364,0.0,,,,,,,,,,,,,,,,,,,,
281.0,141583302.0,0.990075,-0.009442,-0.013685,0.139556,0.013573,-0.012658,0.143395,0.0,,,,,,,,,,,,,,,,,,,,
282.0,141599969.0,0.990075,-0.00943,-0.013697,0.13955,0.030174,-0.003267,0.137719,0.0,,,,,,,,,,,,,,,,,,,,
283.0,141616636.0,0.990075,-0.009429,-0.013697,0.13955,0.034784,0.014956,0.142367,0.0,,,,,,,,,,,,,,,,,,,,
284.0,141633303.0,0.990076,-0.009427,-0.013688,0.13955,0.04759,0.030065,0.15945,0.0,,,,,,,,,,,,,,,,,,,,
285.0,141649970.0,0.990075,-0.009424,-0.013689,0.139555,0.027739,0.0274,0.153974,0.0,,,,,,,,,,,,,,,,,,,,
286.0,141666637.0,0.990076,-0.009423,-0.01369,0.139547,0.022582,0.035844,0.150353,0.0,,,,,,,,,,,,,,,,,,,,
287.0,141683304.0,0.990074,-0.009428,-0.013698,0.13956,0.01518,0.018137,0.132812,0.0,,,,,,,,,,,,,,,,,,,,
288.0,141699971.0,0.990076,-0.009424,-0.013699,0.139547,0.010207,-0.001501,0.148258,0.0,,,,,,,,,,,,,,,,,,,,
289.0,141716638.0,0.990076,-0.00943,-0.013697,0.139546,0.002287,-0.023671,0.162966,0.0,,,,,,,,,,,,,,,,,,,,
290.0,141733305.0,0.990076,-0.009431,-0.013701,0.139549,0.001252,-0.01537,0.179165,0.0,,,,,,,,,,,,,,,,,,,,
291.0,141749972.0,0.990077,-0.009424,-0.013695,0.139542,-0.004158,-0.013702,0.126432,0.0,,,,,,,,,,,,,,,,,,,,
292.0,141766639.0,0.990078,-0.009419,-0.013705,0.139528,0.008144,0.007114,0.135902,0.0,,,,,,,,,,,,,,,,,,,,
293.0,141783306.0,0.990077,-0.009418,-0.013707,0.139536,0.021912,0.015639,0.154502,0.0,,,,,,,,,,,,,,,,,,,,
294.0,141799973.0,0.990077,-0.009424,-0.013696,0.139535,0.015174,0.043169,0.166519,0.0,,,,,,,,,,,,,,,,,,,,
295.0,141816640.0,0.990079,-0.009426,-0.013689,0.139528,0.037249,0.046598,0.154067,0.0,,,,,,,,,,,,,,,,,,,,
296.0,141833307.0,0.990079,-0.009418,-0.013678,0.139527,0.027243,0.013336,0.139217,0.0,,,,,,,,,,,,,,,,,,,,
297.0,141849974.0,0.99008,-0.009416,-0.013673,0.139519,0.027024,0.007626,0.142388,0.0,,,,,,,,,,,,,,,,,,,,
298.0,141866641.0,0.99008,-0.009413,-0.013668,0.13952,0.015122,-0.018244,0.160989,0.0,,,,,,,,,,,,,,,,,,,,
299.0,141883308.0,0.990082,-0.009411,-0.013666,0.139509,0.030397,-0.04008,0.150923,0.0,,,,,,,,,,,,,,,,,,,,
300.0,141899975.0,0.990081,-0.009415,-0.013668,0.139515,0.014633,-0.019744,0.142528,0.0,,,,,,,,,,,,,,,,,,,,
301.0,141916642.0,0.99008,-0.009421,-0.013669,0.139521,0.005714,-0.011542,0.168285,0.0,,,,,,,,,,,,,,,,,,,,
302.0,141933309.0,0.99008,-0.009418,-0.013674,0.139519,-0.008743,0.020692,0.149357,0.0,,,,,,,,,,,,,,,,,,,,
303.0,141949976.0,0.990081,-0.009422,-0.013669,0.139512,0.01042,0.028985,0.155267,0.0,,,,,,,,,,,,,,,,,,,,
304.0,141966643.0,0.990082,-0.009434,-0.013661,0.139508,0.00152,0.039571,0.144713,0.0,,,,,,,,,,,,,,,,,,,,
305.0,141983310.0,0.990083,-0.009448,-0.01367,0.1395,7.3e-05,0.035119,0.129513,0.0,,,,,,,,,,,,,,,,,,,,
306.0,141999977.0,0.990083,-0.009445,-0.013672,0.139496,0.016689,0.025782,0.124468,0.0,,,,,,,,,,,,,,,,,,,,
307.0,142016644.0,0.990085,-0.009446,-0.013673,0.139482,0.015669,-0.004461,0.142088,0.0,,,,,,,,,,,,,,,,,,,,
308.0,142033311.0,0.990086,-0.009456,-0.013681,0.139475,0.029017,-0.015843,0.149129,0.0,,,,,,,,,,,,,,,,,,,,
309.0,142049978.0,0.990086,-0.009463,-0.013666,0.139478,0.039118,-0.026734,0.160401,0.0,,,,,,,,,,,,,,,,,,,,
310.0,142066645.0,0.990085,-0.009471,-0.013667,0.139479,0.025938,0.000241,0.152246,0.0,,,,,,,,,,,,,,,,,,,,
311.0,142083312.0,0.990085,-0.009471,-0.01367,0.139484,0.019307,0.017519,0.139478,0.0,,,,,,,,,,,,,,,,,,,,
312.0,142099979.0,0.990084,-0.009476,-0.013664,0.139488,0.023464,0.020262,0.14811,0.0,,,,,,,,,,,,,,,,,,,,
313.0,142116646.0,0.990085,-0.009468,-0.013655,0.139484,0.004571,0.026156,0.142071,0.0,,,,,,,,,,,,,,,,,,,,
314.0,142133313.0,0.990085,-0.00947,-0.013649,0.139487,-0.013498,0.023538,0.132634,0.0,,,,,,,,,,,,,,,,,,,,
315.0,142149980.0,0.990085,-0.009474,-0.013656,0.139486,-0.003197,0.026871,0.154364,0.0,,,,,,,,,,,,,,,,,,,,
316.0,142166647.0,0.990085,-0.009475,-0.013649,0.139481,0.006856,0.016778,0.153814,0.0,,,,,,,,,,,,,,,,,,,,
317.0,142183314.0,0.990087,-0.009462,-0.013648,0.139473,0.025076,-0.004227,0.148666,0.0,,,,,,,,,,,,,,,,,,,,
318.0,142199981.0,0.990086,-0.009473,-0.013646,0.139474,0.033897,-0.000148,0.152757,0.0,,,,,,,,,,,,,,,,,,,,
319.0,142216648.0,0.990086,-0.00947,-0.01364,0.139475,0.02635,-0.007447,0.153657,0.0,,,,,,,,,,,,,,,,,,,,
320.0,142233315.0,0.990086,-0.00948,-0.013652,0.139478,0.040398,-0.004785,0.165471,0.0,,,,,,,,,,,,,,,,,,,,
321.0,142249982.0,0.990085,-0.009485,-0.013658,0.139481,0.017387,0.008847,0.169472,0.0,,,,,,,,,,,,,,,,,,,,
322.0,142266649.0,0.990085,-0.009477,-0.013664,0.139482,0.022719,0.02852,0.163239,0.0,,,,,,,,,,,,,,,,,,,,
323.0,142283316.0,0.990085,-0.009477,-0.013658,0.139481,0.004137,0.028953,0.175611,0.0,,,,,,,,,,,,,,,,,,,,
324.0,142299983.0,0.990084,-0.009471,-0.013661,0.139488,0.007389,0.022215,0.145005,0.0,,,,,,,,,,,,,,,,,,,,
325.0,142316650.0,0.990085,-0.009473,-0.013661,0.13948,0.000781,0.016689,0.138154,0.0,,,,,,,,,,,,,,,,,,,,
326.0,142333317.0,0.990087,-0.009465,-0.013665,0.139469,-0.006646,0.012331,0.142217,0.0,,,,,,,,,,,,,,,,,,,,
327.0,142349984.0,0.990088,-0.009463,-0.013668,0.139462,-0.003451,0.011995,0.176859,0.0,,,,,,,,,,,,,,,,,,,,
328.0,142366651.0,0.990089,-0.009457,-0.013667,0.139455,-0.000446,-0.007116,0.149838,0.0,,,,,,,,,,,,,,,,,,,,
329.0,142383318.0,0.99009,-0.009456,-0.01367,0.139446,0.011661,-0.011867,0.161643,0.0,,,,,,,,,,,,,,,,,,,,
330.0,142399985.0,0.990091,-0.009455,-0.013682,0.139441,0.004593,-0.003739,0.139324,0.0,,,,,,,,,,,,,,,,,,,,
331.0,142416652.0,0.990092,-0.009465,-0.013667,0.139436,0.030825,-0.004931,0.155059,0.0,,,,,,,,,,,,,,,,,,,,
332.0,142433319.0,0.990092,-0.009468,-0.013669,0.139436,0.025852,0.014226,0.140745,0.0,,,,,,,,,,,,,,,,,,,,
333.0,142449986.0,0.990091,-0.009468,-0.013668,0.139439,0.054527,0.016609,0.144731,0.0,,,,,,,,,,,,,,,,,,,,
334.0,142466653.0,0.990092,-0.009463,-0.013674,0.139432,0.024397,0.031776,0.146465,0.0,,,,,,,,,,,,,,,,,,,,
335.0,142483320.0,0.990092,-0.009472,-0.013672,0.139434,0.019373,0.025539,0.139496,0.0,,,,,,,,,,,,,,,,,,,,
336.0,142499987.0,0.990092,-0.009491,-0.013759,0.139423,0.006303,0.004024,0.146894,0.0,,,,,,,,,,,,,,,,,,,,
337.0,142516654.0,0.990093,-0.009496,-0.013761,0.139417,0.015137,-0.006818,0.136214,0.0,,,,,,,,,,,,,,,,,,,,
338.0,142533321.0,0.990094,-0.009493,-0.013765,0.139409,0.007388,-0.004063,0.145391,0.0,,,,,,,,,,,,,,,,,,,,
339.0,142549988.0,0.990093,-0.009482,-0.013762,0.139416,-0.008195,0.006134,0.14066,0.0,,,,,,,,,,,,,,,,,,,,
340.0,142566655.0,0.990094,-0.009471,-0.013753,0.13941,0.000718,0.026107,0.163196,0.0,,,,,,,,,,,,,,,,,,,,
341.0,142583322.0,0.990093,-0.009478,-0.013746,0.139415,-0.00026,0.030391,0.149719,0.0,,,,,,,,,,,,,,,,,,,,
342.0,142599989.0,0.990094,-0.009482,-0.013741,0.139407,0.010438,0.027896,0.153151,0.0,,,,,,,,,,,,,,,,,,,,
343.0,142616656.0,0.990095,-0.009477,-0.013744,0.1394,0.019539,0.033005,0.148595,0.0,,,,,,,,,,,,,,,,,,,,
344.0,142633323.0,0.990097,-0.009482,-0.013742,0.139391,0.034364,0.028526,0.157898,0.0,,,,,,,,,,,,,,,,,,,,
345.0,142649990.0,0.990098,-0.009482,-0.013743,0.139385,0.044101,0.005847,0.148423,0.0,,,,,,,,,,,,,,,,,,,,
346.0,142666657.0,0.990097,-0.009484,-0.013735,0.139391,0.032148,0.000785,0.159301,0.0,,,,,,,,,,,,,,,,,,,,
347.0,142683324.0,0.990097,-0.009477,-0.01374,0.139389,0.037353,-0.024398,0.156548,0.0,,,,,,,,,,,,,,,,,,,,
348.0,142699991.0,0.990095,-0.009485,-0.013743,0.1394,0.013437,-0.007436,0.138004,0.0,,,,,,,,,,,,,,,,,,,,
349.0,142716658.0,0.990095,-0.009483,-0.013739,0.139405,0.00211,0.02052,0.138334,0.0,,,,,,,,,,,,,,,,,,,,
350.0,142733325.0,0.990094,-0.00949,-0.013738,0.139411,0.00131,0.022041,0.146471,0.0,,,,,,,,,,,,,,,,,,,,
351.0,142749992.0,0.990095,-0.009495,-0.013743,0.139405,-0.022146,0.029486,0.157212,0.0,,,,,,,,,,,,,,,,,,,,
352.0,142766659.0,0.990095,-0.009494,-0.01374,0.139402,-0.002602,0.025021,0.149806,0.0,,,,,,,,,,,,,,,,,,,,
353.0,142783326.0,0.990096,-0.009488,-0.013751,0.139395,-0.009317,0.017377,0.144734,0.0,,,,,,,,,,,,,,,,,,,,
354.0,142799993.0,0.990096,-0.009498,-0.013745,0.139393,0.008727,0.003816,0.144058,0.0,,,,,,,,,,,,,,,,,,,,
355.0,142816660.0,0.990097,-0.009488,-0.013746,0.13939,0.015606,-0.006632,0.14303,0.0,,,,,,,,,,,,,,,,,,,,
356.0,142833327.0,0.990096,-0.009491,-0.013747,0.139396,0.024051,0.010696,0.13424,0.0,,,,,,,,,,,,,,,,,,,,
357.0,142849994.0,0.990097,-0.00948,-0.013756,0.139388,0.01864,-0.006264,0.176092,0.0,,,,,,,,,,,,,,,,,,,,
358.0,142866661.0,0.990096,-0.00948,-0.013744,0.139397,0.021022,0.004947,0.1622,0.0,,,,,,,,,,,,,,,,,,,,
359.0,142883328.0,0.990095,-0.00948,-0.013737,0.139401,0.02245,0.011514,0.146282,0.0,,,,,,,,,,,,,,,,,,,,
360.0,142899995.0,0.990095,-0.009471,-0.013736,0.139401,0.00986,0.030336,0.139644,0.0,,,,,,,,,,,,,,,,,,,,
361.0,142916662.0,0.990096,-0.009462,-0.013746,0.139398,4.3e-05,0.036225,0.145204,0.0,,,,,,,,,,,,,,,,,,,,
362.0,142933329.0,0.990096,-0.009458,-0.01374,0.139397,-0.015888,0.026053,0.157296,0.0,,,,,,,,,,,,,,,,,,,,
363.0,142949996.0,0.990095,-0.009462,-0.013746,0.139401,-0.001011,-0.002534,0.145165,0.0,,,,,,,,,,,,,,,,,,,,
364.0,142966663.0,0.990094,-0.009457,-0.013743,0.139409,0.014447,-0.00764,0.150365,0.0,,,,,,,,,,,,,,,,,,,,
365.0,142983330.0,0.990095,-0.009456,-0.013745,0.139408,-0.007895,0.003914,0.135898,0.0,,,,,,,,,,,,,,,,,,,,
366.0,142999997.0,0.990095,-0.009453,-0.013741,0.139407,0.004197,-0.014153,0.161158,0.0,,,,,,,,,,,,,,,,,,,,
367.0,143016664.0,0.990097,-0.009454,-0.013746,0.139392,0.006943,-0.007684,0.155927,0.0,,,,,,,,,,,,,,,,,,,,
368.0,143033331.0,0.990097,-0.009444,-0.013744,0.139391,0.015652,-0.002669,0.166102,0.0,,,,,,,,,,,,,,,,,,,,
369.0,143049998.0,0.990098,-0.009444,-0.013755,0.139385,0.009007,0.022942,0.141438,0.0,,,,,,,,,,,,,,,,,,,,
370.0,143066665.0,0.990098,-0.009444,-0.013762,0.139379,0.006739,0.035127,0.152142,0.0,,,,,,,,,,,,,,,,,,,,
371.0,143083332.0,0.990098,-0.009447,-0.013764,0.13938,0.021544,0.036473,0.150436,0.0,,,,,,,,,,,,,,,,,,,,
372.0,143099999.0,0.990098,-0.009453,-0.013774,0.139381,0.01561,0.021497,0.133358,0.0,,,,,,,,,,,,,,,,,,,,
373.0,143116666.0,0.990099,-0.009452,-0.013774,0.139376,0.015124,0.003026,0.169098,0.0,,,,,,,,,,,,,,,,,,,,
374.0,143133333.0,0.990099,-0.009442,-0.013766,0.139375,0.001165,-0.003572,0.123879,0.0,,,,,,,,,,,,,,,,,,,,
375.0,143150000.0,0.990099,-0.009444,-0.013751,0.139378,0.0108,-0.018585,0.155377,0.0,,,,,,,,,,,,,,,,,,,,
376.0,143166667.0,0.990099,-0.00945,-0.013758,0.139378,-0.000368,-0.00578,0.124196,0.0,,,,,,,,,,,,,,,,,,,,
377.0,143183334.0,0.990098,-0.009453,-0.01375,0.139382,-0.002353,-0.00421,0.150918,0.0,,,,,,,,,,,,,,,,,,,,
378.0,143200001.0,0.990099,-0.009452,-0.013737,0.139377,-0.000476,0.004817,0.156033,0.0,,,,,,,,,,,,,,,,,,,,
379.0,143216668.0,0.990099,-0.009447,-0.013743,0.139376,-0.002187,0.035099,0.164721,0.0,,,,,,,,,,,,,,,,,,,,
380.0,143233335.0,0.990099,-0.009447,-0.013743,0.139375,0.011472,0.025195,0.139175,0.0,,,,,,,,,,,,,,,,,,,,
381.0,143250002.0,0.990099,-0.009456,-0.013738,0.13938,0.013231,0.022138,0.157648,0.0,,,,,,,,,,,,,,,,,,,,
382.0,143266669.0,0.9901,-0.009449,-0.013738,0.139367,0.032453,0.015702,0.148442,0.0,,,,,,,,,,,,,,,,,,,,
383.0,143283336.0,0.990102,-0.009455,-0.013736,0.139354,0.034645,-0.010492,0.159795,0.0,,,,,,,,,,,,,,,,,,,,
384.0,143300003.0,0.990104,-0.009449,-0.013727,0.13934,0.034786,-0.015901,0.157464,0.0,,,,,,,,,,,,,,,,,,,,
385.0,143316670.0,0.990104,-0.009444,-0.013736,0.139342,0.018352,-0.008552,0.148231,0.0,,,,,,,,,,,,,,,,,,,,
386.0,143333337.0,0.990104,-0.00944,-0.01373,0.139345,0.023751,-0.001881,0.144449,0.0,,,,,,,,,,,,,,,,,,,,
387.0,143350004.0,0.990103,-0.00944,-0.013733,0.139349,0.008538,0.00599,0.155177,0.0,,,,,,,,,,,,,,,,,,,,
388.0,143366671.0,0.990103,-0.009445,-0.013723,0.139352,-0.002507,0.022068,0.175942,0.0,,,,,,,,,,,,,,,,,,,,
389.0,143383338.0,0.990101,-0.009439,-0.013712,0.139365,-0.007074,0.025801,0.169939,0.0,,,,,,,,,,,,,,,,,,,,
390.0,143400005.0,0.990103,-0.009437,-0.013715,0.139355,-0.016986,0.022336,0.153893,0.0,,,,,,,,,,,,,,,,,,,,
391.0,143416672.0,0.990103,-0.009432,-0.013707,0.139354,-0.01359,0.014667,0.148115,0.0,,,,,,,,,,,,,,,,,,,,
392.0,143433339.0,0.990105,-0.009437,-0.013707,0.139339,0.006492,-0.004112,0.14892,0.0,,,,,,,,,,,,,,,,,,,,
393.0,143450006.0,0.990107,-0.009436,-0.0137,0.139325,0.024898,-0.00659,0.149696,0.0,,,,,,,,,,,,,,,,,,,,
394.0,143466673.0,0.990107,-0.009441,-0.013701,0.139324,0.038423,-0.014765,0.144745,0.0,,,,,,,,,,,,,,,,,,,,
395.0,143483340.0,0.990107,-0.009453,-0.013698,0.139323,0.043858,-0.001789,0.116251,0.0,,,,,,,,,,,,,,,,,,,,
396.0,143500007.0,0.990107,-0.009457,-0.013691,0.139325,0.036589,0.014953,0.126152,0.0,,,,,,,,,,,,,,,,,,,,
397.0,143516674.0,0.990107,-0.009448,-0.013689,0.139324,0.047399,0.024179,0.136939,0.0,,,,,,,,,,,,,,,,,,,,
398.0,143533341.0,0.990109,-0.009442,-0.013688,0.139309,0.014037,0.02107,0.162995,0.0,,,,,,,,,,,,,,,,,,,,
399.0,143550008.0,0.99011,-0.009444,-0.013678,0.139303,0.003049,0.026236,0.143725,0.0,,,,,,,,,,,,,,,,,,,,
400.0,143566675.0,0.99011,-0.00944,-0.013676,0.13931,-0.000943,0.015321,0.132923,0.0,,,,,,,,,,,,,,,,,,,,
401.0,143583342.0,0.99011,-0.009441,-0.013661,0.139305,-0.026283,-0.007475,0.132513,0.0,,,,,,,,,,,,,,,,,,,,
402.0,143600009.0,0.99011,-0.00945,-0.01366,0.139304,-0.012188,-0.006413,0.142871,0.0,,,,,,,,,,,,,,,,,,,,
403.0,143616676.0,0.990111,-0.009447,-0.013661,0.1393,-0.012406,-0.008806,0.157986,0.0,,,,,,,,,,,,,,,,,,,,
404.0,143633343.0,0.990112,-0.009453,-0.013661,0.13929,0.00873,-0.012157,0.141154,0.0,,,,,,,,,,,,,,,,,,,,
405.0,143650010.0,0.990113,-0.009445,-0.013671,0.139286,-0.005909,-0.000844,0.149145,0.0,,,,,,,,,,,,,,,,,,,,
406.0,143666677.0,0.990113,-0.009458,-0.013665,0.139284,0.030895,0.013699,0.131828,0.0,,,,,,,,,,,,,,,,,,,,
407.0,143683344.0,0.990113,-0.00945,-0.013665,0.139286,0.052978,0.036735,0.142496,0.0,,,,,,,,,,,,,,,,,,,,
408.0,143700011.0,0.990112,-0.009448,-0.013659,0.139289,0.034052,0.028246,0.157111,0.0,,,,,,,,,,,,,,,,,,,,
409.0,143716678.0,0.990112,-0.009455,-0.01365,0.13929,0.037423,0.036677,0.147833,0.0,,,,,,,,,,,,,,,,,,,,
410.0,143733345.0,0.990113,-0.009471,-0.013652,0.139282,0.02413,0.003666,0.166799,0.0,,,,,,,,,,,,,,,,,,,,
411.0,143750012.0,0.990113,-0.009478,-0.013655,0.139284,0.012008,0.004112,0.132981,0.0,,,,,,,,,,,,,,,,,,,,
412.0,143766679.0,0.990113,-0.009477,-0.013658,0.139284,0.014112,-0.009851,0.164147,0.0,,,,,,,,,,,,,,,,,,,,
413.0,143783346.0,0.990113,-0.009476,-0.013647,0.139288,0.01597,-0.006349,0.167735,0.0,,,,,,,,,,,,,,,,,,,,
414.0,143800013.0,0.990113,-0.009472,-0.013644,0.139284,-0.021516,-0.001318,0.161208,0.0,,,,,,,,,,,,,,,,,,,,
415.0,143816680.0,0.990113,-0.009471,-0.01365,0.139283,0.000507,-0.009906,0.145912,0.0,,,,,,,,,,,,,,,,,,,,
416.0,143833347.0,0.990113,-0.009468,-0.013653,0.139285,0.008007,0.016739,0.143085,0.0,,,,,,,,,,,,,,,,,,,,
417.0,143850014.0,0.990114,-0.009472,-0.013654,0.139279,0.015784,0.017997,0.155251,0.0,,,,,,,,,,,,,,,,,,,,
418.0,143866681.0,0.990116,-0.009472,-0.013666,0.139264,0.018367,0.026578,0.144462,0.0,,,,,,,,,,,,,,,,,,,,
419.0,143883348.0,0.990117,-0.009473,-0.013665,0.139256,0.026868,0.028318,0.150331,0.0,,,,,,,,,,,,,,,,,,,,
420.0,143900015.0,0.990117,-0.009479,-0.013661,0.139254,0.045296,0.020689,0.131831,0.0,,,,,,,,,,,,,,,,,,,,
421.0,143916682.0,0.990118,-0.009482,-0.013649,0.139249,0.041567,-0.000169,0.13803,0.0,,,,,,,,,,,,,,,,,,,,
422.0,143933349.0,0.990119,-0.009484,-0.013647,0.139244,0.027679,0.001052,0.137896,0.0,,,,,,,,,,,,,,,,,,,,
423.0,143950016.0,0.990119,-0.009489,-0.013653,0.13924,0.02159,-0.0163,0.169528,0.0,,,,,,,,,,,,,,,,,,,,
424.0,143966683.0,0.990118,-0.009492,-0.013646,0.139249,-0.003757,-0.009514,0.154202,0.0,,,,,,,,,,,,,,,,,,,,
425.0,143983350.0,0.990118,-0.009485,-0.013643,0.139249,-0.009032,0.004487,0.125705,0.0,,,,,,,,,,,,,,,,,,,,
426.0,144000017.0,0.990118,-0.009481,-0.013637,0.139251,-0.02326,0.02231,0.1454,0.0,,,,,,,,,,,,,,,,,,,,
427.0,144016684.0,0.990119,-0.009481,-0.013627,0.139246,-0.011583,0.030453,0.147429,0.0,,,,,,,,,,,,,,,,,,,,
428.0,144033351.0,0.990121,-0.009485,-0.013625,0.139233,-0.0272,0.023684,0.155272,0.0,,,,,,,,,,,,,,,,,,,,
429.0,144050018.0,0.990122,-0.00948,-0.013621,0.139225,0.005148,0.016098,0.159783,0.0,,,,,,,,,,,,,,,,,,,,
430.0,144066685.0,0.990122,-0.00947,-0.013618,0.139222,0.020312,0.017571,0.149534,0.0,,,,,,,,,,,,,,,,,,,,
431.0,144083352.0,0.990123,-0.009476,-0.013615,0.139215,0.032317,0.003676,0.159405,0.0,,,,,,,,,,,,,,,,,,,,
432.0,144100019.0,0.990124,-0.009465,-0.013612,0.139209,0.031893,0.005978,0.153759,0.0,,,,,,,,,,,,,,,,,,,,
433.0,144116686.0,0.990124,-0.009464,-0.013603,0.139214,0.041109,0.000789,0.146323,0.0,,,,,,,,,,,,,,,,,,,,
434.0,144133353.0,0.990123,-0.009462,-0.013595,0.139218,0.042642,0.01281,0.148456,0.0,,,,,,,,,,,,,,,,,,,,
435.0,144150020.0,0.990124,-0.009469,-0.013588,0.139213,0.010748,0.016306,0.170008,0.0,,,,,,,,,,,,,,,,,,,,
436.0,144166687.0,0.990124,-0.009469,-0.013584,0.13921,0.011497,0.024756,0.15186,0.0,,,,,,,,,,,,,,,,,,,,
437.0,144183354.0,0.990125,-0.009472,-0.013576,0.139206,-0.000316,0.035046,0.141201,0.0,,,,,,,,,,,,,,,,,,,,
438.0,144200021.0,0.990126,-0.009468,-0.013571,0.139201,-0.016639,0.007687,0.151237,0.0,,,,,,,,,,,,,,,,,,,,
439.0,144216688.0,0.990126,-0.009464,-0.013582,0.139198,-0.014834,-0.00383,0.131679,0.0,,,,,,,,,,,,,,,,,,,,
440.0,144233355.0,0.990127,-0.009459,-0.01358,0.139196,0.014901,0.001072,0.152856,0.0,,,,,,,,,,,,,,,,,,,,
441.0,144250022.0,0.990598,-0.009287,-0.013873,0.135779,7.96634,3.422372,0.358993,0.0,,,,,,,,,,,,,,,,,,,,
442.0,144266689.0,0.989732,-0.009272,-0.01377,0.141965,1.865455,0.276198,0.153738,0.0,,,,,,,,,,,,,,,,,,,,
443.0,144283356.0,0.989573,-0.00963,-0.013608,0.143062,-5.503763,-1.831556,-0.011717,0.0,,,,,,,,,,,,,,,,,,,,
444.0,144300023.0,0.990378,-0.009717,-0.013516,0.137386,1.888273,1.034438,0.199546,0.0,,,,,,,,,,,,,,,,,,,,
445.0,144316690.0,0.989789,-0.009653,-0.01339,0.141578,1.774564,0.140368,0.24334,0.0,,,,,,,,,,,,,,,,,,,,
446.0,144333357.0,0.989123,-0.00956,-0.013535,0.146154,-1.173061,0.245595,0.058585,0.0,,,,,,,,,,,,,,,,,,,,
447.0,144350024.0,0.98878,-0.009612,-0.013225,0.148479,-0.245178,0.712445,0.142826,0.0,,,,,,,,,,,,,,,,,,,,
448.0,144366691.0,0.988285,-0.009911,-0.012922,0.151748,0.9364,0.432875,0.165446,0.0,,,,,,,,,,,,,,,,,,,,
449.0,144383358.0,0.987925,-0.010053,-0.012881,0.154072,0.225479,-0.010327,0.159634,0.0,,,,,,,,,,,,,,,,,,,,
450.0,144400025.0,0.987853,-0.009832,-0.013038,0.154534,0.700982,-0.195392,0.181881,0.0,,,,,,,,,,,,,,,,,,,,
451.0,144416692.0,0.987457,-0.009717,-0.013177,0.157037,-0.467453,1.048776,0.120792,0.0,,,,,,,,,,,,,,,,,,,,
452.0,144433359.0,0.986485,-0.009562,-0.013215,0.163039,0.104217,0.826811,0.152356,0.0,,,,,,,,,,,,,,,,,,,,
453.0,144450026.0,0.985444,-0.009541,-0.013258,0.169215,0.722457,-0.163787,0.194721,0.0,,,,,,,,,,,,,,,,,,,,
454.0,144466693.0,0.984292,-0.009593,-0.013172,0.175797,-0.167373,-0.285851,0.13927,0.0,,,,,,,,,,,,,,,,,,,,
455.0,144483360.0,0.983322,-0.009662,-0.013073,0.181144,-1.47513,-0.785807,0.08241,0.0,,,,,,,,,,,,,,,,,,,,
456.0,144500027.0,0.982776,-0.009776,-0.012975,0.184088,-2.564707,-0.634142,0.087844,0.0,,,,,,,,,,,,,,,,,,,,
457.0,144516694.0,0.98276,-0.009934,-0.012841,0.184171,-1.366811,-0.506235,0.128276,0.0,,,,,,,,,,,,,,,,,,,,
458.0,144533361.0,0.983265,-0.00995,-0.012831,0.181459,-1.535767,0.214508,0.112505,0.0,,,,,,,,,,,,,,,,,,,,
459.0,144550028.0,0.983392,-0.009988,-0.012772,0.180768,2.83745,-0.296328,0.193268,0.0,,,,,,,,,,,,,,,,,,,,
460.0,144566695.0,0.982603,-0.009841,-0.01283,0.185012,-0.17187,-1.011009,0.143107,0.0,,,,,,,,,,,,,,,,,,,,
461.0,144583362.0,0.981685,-0.009824,-0.012805,0.189829,-1.454641,-0.151416,0.115103,0.0,,,,,,,,,,,,,,,,,,,,
462.0,144600029.0,0.981567,-0.009703,-0.012886,0.190437,-2.598606,-1.888343,0.098659,0.0,,,,,,,,,,,,,,,,,,,,
463.0,144616696.0,0.982998,-0.009814,-0.012864,0.182901,-0.176069,-0.155544,0.199437,0.0,,,,,,,,,,,,,,,,,,,,
464.0,144633363.0,0.983718,-0.009926,-0.012834,0.178984,0.435047,0.134249,0.100199,0.0,,,,,,,,,,,,,,,,,,,,
465.0,144650030.0,0.983712,-0.0099,-0.012855,0.179018,0.008395,0.041229,0.158799,0.0,,,,,,,,,,,,,,,,,,,,
466.0,144666697.0,0.98371,-0.009866,-0.012863,0.17903,0.011386,0.041237,0.158983,0.0,,,,,,,,,,,,,,,,,,,,
467.0,144683364.0,0.983708,-0.00989,-0.012849,0.17904,0.015514,0.051095,0.131397,0.0,,,,,,,,,,,,,,,,,,,,
468.0,144700031.0,0.983697,-0.009926,-0.012838,0.179098,0.025963,0.037841,0.118039,0.0,,,,,,,,,,,,,,,,,,,,
469.0,144716698.0,0.983498,-0.010073,-0.012741,0.180192,0.177054,0.169188,0.14465,0.0,,,,,,,,,,,,,,,,,,,,
470.0,144733365.0,0.981738,-0.010767,-0.012045,0.189552,0.310838,0.26514,0.193334,0.0,,,,,,,,,,,,,,,,,,,,
471.0,144750032.0,0.978466,-0.011819,-0.010672,0.205794,-0.352389,-0.608473,0.041999,0.0,,,,,,,,,,,,,,,,,,,,
472.0,144766699.0,0.974766,-0.012144,-0.010132,0.222667,0.137798,-0.242621,0.185348,0.0,,,,,,,,,,,,,,,,,,,,
473.0,144783366.0,0.971041,-0.012449,-0.00978,0.238387,-0.308282,-0.390862,0.098212,0.0,,,,,,,,,,,,,,,,,,,,
474.0,144800033.0,0.967353,-0.012696,-0.009645,0.252931,-1.792325,-1.321508,0.104138,0.0,,,,,,,,,,,,,,,,,,,,
475.0,144816700.0,0.968557,-0.012978,-0.008902,0.248295,1.11213,1.97813,0.256708,0.0,,,,,,,,,,,,,,,,,,,,
476.0,144833367.0,0.97044,-0.00906,-0.00618,0.241095,-1.103187,-2.329483,0.168094,0.0,,,,,,,,,,,,,,,,,,,,
477.0,144850034.0,0.974828,0.002765,-0.007434,0.222819,-0.28477,-0.269839,1.891018,0.0,,,,,,,,,,,,,,,,,,,,
478.0,144866701.0,0.975277,0.009466,-0.02349,0.219531,2.879395,3.604209,7.436783,0.0,,,,,,,,,,,,,,,,,,,,
479.0,144883368.0,0.97347,0.014591,-0.041074,0.224626,-2.377461,0.534741,4.547093,0.0,,,,,,,,,,,,,,,,,,,,
480.0,144900035.0,0.972845,0.028004,-0.050854,0.22406,-3.689745,0.336458,6.557365,0.0,,,,,,,,,,,,,,,,,,,,
481.0,144916702.0,0.973422,0.044918,-0.053068,0.218213,-1.987726,-0.95732,7.882528,0.0,,,,,,,,,,,,,,,,,,,,
482.0,144933369.0,0.973834,0.062723,-0.053705,0.211727,-0.736871,-0.552033,8.552597,0.0,,,,,,,,,,,,,,,,,,,,
483.0,144950036.0,0.974223,0.080065,-0.05188,0.204422,-1.233647,-0.775731,8.383183,0.0,,,,,,,,,,,,,,,,,,,,
484.0,144966703.0,0.974646,0.097112,-0.049422,0.195427,-2.179419,-0.887286,7.907396,0.0,,,,,,,,,,,,,,,,,,,,
485.0,144983370.0,0.974663,0.113213,-0.048513,0.186711,-2.045559,-0.154424,6.549528,0.0,,,,,,,,,,,,,,,,,,,,
486.0,145000037.0,0.973775,0.128157,-0.049976,0.181218,-1.264735,-0.613078,3.123098,0.0,,,,,,,,,,,,,,,,,,,,
487.0,145016704.0,0.971901,0.141595,-0.054823,0.17987,-1.666628,-0.902457,-0.720396,0.0,,,,,,,,,,,,,,,,,,,,
488.0,145033371.0,0.970392,0.152287,-0.059653,0.177734,-0.846484,-0.937724,-3.721911,0.0,,,,,,,,,,,,,,,,,,,,
489.0,145050038.0,0.970175,0.157723,-0.063968,0.172605,2.05907,-0.665636,-7.857764,0.0,,,,,,,,,,,,,,,,,,,,
490.0,145066705.0,0.969467,0.158728,-0.072461,0.172307,3.808641,0.05528,-10.826285,0.0,,,,,,,,,,,,,,,,,,,,
491.0,145083372.0,0.968661,0.155619,-0.080094,0.17625,2.651051,0.7372,-11.670864,0.0,,,,,,,,,,,,,,,,,,,,
492.0,145100039.0,0.969086,0.150325,-0.080392,0.178358,1.87989,1.260696,-11.006162,0.0,,,,,,,,,,,,,,,,,,,,
493.0,145116706.0,0.970981,0.143356,-0.072539,0.177151,2.470905,1.194253,-10.145849,0.0,,,,,,,,,,,,,,,,,,,,
494.0,145133373.0,0.97297,0.135644,-0.065686,0.174975,3.955366,1.567301,-8.245505,0.0,,,,,,,,,,,,,,,,,,,,
495.0,145150040.0,0.974419,0.127533,-0.065977,0.172888,3.792506,0.718876,-7.97002,0.0,,,,,,,,,,,,,,,,,,,,
496.0,145166707.0,0.975938,0.11937,-0.067628,0.169479,2.935718,1.008108,-7.715073,0.0,,,,,,,,,,,,,,,,,,,,
497.0,145183374.0,0.977405,0.111292,-0.066983,0.166755,2.052694,0.850044,-6.944532,0.0,,,,,,,,,,,,,,,,,,,,
498.0,145200041.0,0.979083,0.102135,-0.063404,0.164151,1.991114,-0.189591,-6.45211,0.0,,,,,,,,,,,,,,,,,,,,
499.0,145216708.0,0.981063,0.090658,-0.058204,0.160964,1.688137,-1.012021,-5.270689,0.0,,,,,,,,,,,,,,,,,,,,
500.0,145233375.0,0.982478,0.077187,-0.056434,0.15998,-0.798772,-0.711427,-2.768827,0.0,,,,,,,,,,,,,,,,,,,,
501.0,145250042.0,0.983565,0.0634,-0.055295,0.159759,-1.781366,0.01474,-0.253918,0.0,,,,,,,,,,,,,,,,,,,,
502.0,145266709.0,0.983905,0.053019,-0.054485,0.161714,-1.161418,1.40144,2.364215,0.0,,,,,,,,,,,,,,,,,,,,
503.0,145283376.0,0.983729,0.046587,-0.052402,0.16541,-0.812043,0.099162,1.815528,0.0,,,,,,,,,,,,,,,,,,,,
504.0,145300043.0,0.983865,0.040385,-0.047921,0.167579,-1.47982,-1.583327,0.352321,0.0,,,,,,,,,,,,,,,,,,,,
505.0,145316710.0,0.983994,0.033227,-0.04288,0.169744,-2.337446,-0.877167,1.184727,0.0,,,,,,,,,,,,,,,,,,,,
506.0,145333377.0,0.983992,0.026154,-0.037212,0.172313,-1.405254,0.358737,3.078649,0.0,,,,,,,,,,,,,,,,,,,,
507.0,145350044.0,0.983804,0.020229,-0.031608,0.175272,-0.60829,-0.010407,3.379848,0.0,,,,,,,,,,,,,,,,,,,,
508.0,145366711.0,0.983741,0.014392,-0.026632,0.177023,-0.41664,-0.97918,2.952775,0.0,,,,,,,,,,,,,,,,,,,,
509.0,145383378.0,0.983977,0.008011,-0.022988,0.176627,-0.233847,-0.728126,3.378905,0.0,,,,,,,,,,,,,,,,,,,,
510.0,145400045.0,0.98407,0.001933,-0.023274,0.176238,0.459002,-0.008102,4.285935,0.0,,,,,,,,,,,,,,,,,,,,
511.0,145416712.0,0.984031,-0.002394,-0.024311,0.176313,0.256706,0.449223,4.227671,0.0,,,,,,,,,,,,,,,,,,,,
512.0,145433379.0,0.98378,-0.005033,-0.023766,0.177729,-0.959503,0.433244,3.564933,0.0,,,,,,,,,,,,,,,,,,,,
513.0,145450046.0,0.983641,-0.006195,-0.021525,0.178742,-1.667373,0.254679,2.801849,0.0,,,,,,,,,,,,,,,,,,,,
514.0,145466713.0,0.983701,-0.006353,-0.01753,0.178841,-0.67679,0.436394,2.150217,0.0,,,,,,,,,,,,,,,,,,,,
515.0,145483380.0,0.983627,-0.006181,-0.013257,0.179621,0.201847,-0.229214,1.640519,0.0,,,,,,,,,,,,,,,,,,,,
516.0,145500047.0,0.98373,-0.006048,-0.009973,0.179276,0.836503,-0.136962,1.940929,0.0,,,,,,,,,,,,,,,,,,,,
517.0,145516714.0,0.983834,-0.005701,-0.009278,0.178753,1.203474,0.299784,1.743793,0.0,,,,,,,,,,,,,,,,,,,,
518.0,145533381.0,0.983971,-0.004436,-0.009212,0.178035,0.034166,0.240492,0.931353,0.0,,,,,,,,,,,,,,,,,,,,
519.0,145550048.0,0.98432,-0.009634,-0.007963,0.175948,0.208019,1.217906,2.907228,0.0,,,,,,,,,,,,,,,,,,,,
520.0,145566715.0,0.984095,-0.010734,-0.010237,0.177022,0.423546,0.06843,0.207787,0.0,,,,,,,,,,,,,,,,,,,,
521.0,145583382.0,0.984102,-0.010971,-0.010985,0.176924,-0.158942,-0.190942,0.221579,0.0,,,,,,,,,,,,,,,,,,,,
522.0,145600049.0,0.984306,-0.010894,-0.011403,0.175766,0.132571,0.105206,0.162401,0.0,,,,,,,,,,,,,,,,,,,,
523.0,145616716.0,0.984556,-0.010703,-0.012087,0.174327,0.096993,0.011907,0.156032,0.0,,,,,,,,,,,,,,,,,,,,
524.0,145633383.0,0.984844,-0.010651,-0.012275,0.172681,0.022081,0.034095,0.16162,0.0,,,,,,,,,,,,,,,,,,,,
525.0,145650050.0,0.985089,-0.010627,-0.012325,0.171275,0.003134,0.090255,0.156159,0.0,,,,,,,,,,,,,,,,,,,,
526.0,145666717.0,0.985238,-0.010584,-0.012502,0.170405,-0.027167,0.0118,0.145569,0.0,,,,,,,,,,,,,,,,,,,,
527.0,145683384.0,0.985429,-0.01053,-0.012685,0.169286,0.176256,0.154033,0.170114,0.0,,,,,,,,,,,,,,,,,,,,
528.0,145700051.0,0.985674,-0.010471,-0.012778,0.167851,-0.027766,-0.09352,0.15055,0.0,,,,,,,,,,,,,,,,,,,,
529.0,145716718.0,0.985889,-0.010339,-0.012954,0.16658,0.021332,-0.06227,0.151625,0.0,,,,,,,,,,,,,,,,,,,,
530.0,145733385.0,0.986035,-0.01015,-0.013117,0.165709,-0.081057,-0.044952,0.151902,0.0,,,,,,,,,,,,,,,,,,,,
531.0,145750052.0,0.986076,-0.010174,-0.013051,0.165469,-0.091277,0.005926,0.144906,0.0,,,,,,,,,,,,,,,,,,,,
532.0,145766719.0,0.986118,-0.010157,-0.013102,0.165219,0.125877,0.074926,0.15642,0.0,,,,,,,,,,,,,,,,,,,,
533.0,145783386.0,0.98617,-0.01012,-0.013138,0.164904,0.152327,0.113752,0.131063,0.0,,,,,,,,,,,,,,,,,,,,
534.0,145800053.0,0.986249,-0.010066,-0.013167,0.164432,0.093426,0.10532,0.148851,0.0,,,,,,,,,,,,,,,,,,,,
535.0,145816720.0,0.986371,-0.01002,-0.013198,0.163701,0.061035,0.095603,0.155857,0.0,,,,,,,,,,,,,,,,,,,,
536.0,145833387.0,0.986537,-0.009965,-0.013251,0.162695,0.052486,0.05265,0.156238,0.0,,,,,,,,,,,,,,,,,,,,
537.0,145850054.0,0.9867,-0.009928,-0.013256,0.161704,0.019641,-0.005264,0.144876,0.0,,,,,,,,,,,,,,,,,,,,
538.0,145866721.0,0.986866,-0.009882,-0.013271,0.160692,0.068325,0.031753,0.156807,0.0,,,,,,,,,,,,,,,,,,,,
539.0,145883388.0,0.986986,-0.009852,-0.013269,0.159957,-0.056397,-0.069796,0.120259,0.0,,,,,,,,,,,,,,,,,,,,
540.0,145900055.0,0.987084,-0.009864,-0.013214,0.159353,-0.083222,-0.005186,0.164497,0.0,,,,,,,,,,,,,,,,,,,,
541.0,145916722.0,0.98718,-0.009854,-0.01323,0.158754,-0.0973,-0.013316,0.159586,0.0,,,,,,,,,,,,,,,,,,,,
542.0,145933389.0,0.98729,-0.00985,-0.013242,0.158072,-0.046471,-0.004476,0.148446,0.0,,,,,,,,,,,,,,,,,,,,
543.0,145950056.0,0.987434,-0.009847,-0.013244,0.157171,-0.032253,0.01081,0.159893,0.0,,,,,,,,,,,,,,,,,,,,
544.0,145966723.0,0.987582,-0.009842,-0.013241,0.156236,-0.084561,-0.134934,0.127983,0.0,,,,,,,,,,,,,,,,,,,,
545.0,145983390.0,0.987748,-0.00985,-0.013238,0.155183,-0.012394,-0.071461,0.141587,0.0,,,,,,,,,,,,,,,,,,,,
546.0,146000057.0,0.987895,-0.009857,-0.013228,0.154246,0.019706,-0.010319,0.158875,0.0,,,,,,,,,,,,,,,,,,,,
547.0,146016724.0,0.988035,-0.009855,-0.013229,0.153347,0.036846,0.026047,0.133685,0.0,,,,,,,,,,,,,,,,,,,,
548.0,146033391.0,0.988156,-0.009839,-0.013228,0.152566,0.048756,0.015279,0.186385,0.0,,,,,,,,,,,,,,,,,,,,
549.0,146050058.0,0.988259,-0.00984,-0.013233,0.151896,0.052182,0.030337,0.101473,0.0,,,,,,,,,,,,,,,,,,,,
550.0,146066725.0,0.988357,-0.009839,-0.013228,0.151255,0.030337,0.026989,0.185556,0.0,,,,,,,,,,,,,,,,,,,,
551.0,146083392.0,0.988424,-0.009853,-0.013207,0.150822,0.046858,0.033268,0.128527,0.0,,,,,,,,,,,,,,,,,,,,
552.0,146100059.0,0.988475,-0.009859,-0.013196,0.150487,-0.002239,0.008036,0.150795,0.0,,,,,,,,,,,,,,,,,,,,
553.0,146116726.0,0.988535,-0.00988,-0.013193,0.150091,-0.022301,0.007649,0.177938,0.0,,,,,,,,,,,,,,,,,,,,
554.0,146133393.0,0.988591,-0.009905,-0.013184,0.149722,-0.001719,0.00932,0.083572,0.0,,,,,,,,,,,,,,,,,,,,
555.0,146150060.0,0.988628,-0.00991,-0.013176,0.149475,0.006976,0.037029,0.183078,0.0,,,,,,,,,,,,,,,,,,,,
556.0,146166727.0,0.988645,-0.009902,-0.013185,0.149364,-0.001005,0.0295,0.145199,0.0,,,,,,,,,,,,,,,,,,,,
557.0,146183394.0,0.988653,-0.009904,-0.013173,0.149312,0.000992,0.023078,0.174932,0.0,,,,,,,,,,,,,,,,,,,,
558.0,146200061.0,0.988666,-0.00992,-0.013174,0.149225,0.0226,0.017141,0.165377,0.0,,,,,,,,,,,,,,,,,,,,
559.0,146216728.0,0.988655,-0.009907,-0.013175,0.149297,0.067784,0.04648,0.111733,0.0,,,,,,,,,,,,,,,,,,,,
560.0,146233395.0,0.988549,-0.009899,-0.012995,0.150017,-0.142125,0.005773,0.112376,0.0,,,,,,,,,,,,,,,,,,,,
561.0,146250062.0,0.98846,-0.009909,-0.012932,0.150605,0.177,-0.021349,0.166572,0.0,,,,,,,,,,,,,,,,,,,,
562.0,146266729.0,0.988408,-0.009907,-0.012919,0.150946,0.106257,0.007331,0.143661,0.0,,,,,,,,,,,,,,,,,,,,
563.0,146283396.0,0.988336,-0.009909,-0.012916,0.151418,0.068756,0.067123,0.188487,0.0,,,,,,,,,,,,,,,,,,,,
564.0,146300063.0,0.988194,-0.010003,-0.012798,0.152348,0.077954,0.130133,0.170083,0.0,,,,,,,,,,,,,,,,,,,,
565.0,146316730.0,0.987895,-0.010101,-0.012634,0.154276,0.421416,0.45023,0.130833,0.0,,,,,,,,,,,,,,,,,,,,
566.0,146333397.0,0.987311,-0.010083,-0.012598,0.157979,0.603184,0.462851,0.136805,0.0,,,,,,,,,,,,,,,,,,,,
567.0,146350064.0,0.986674,-0.009967,-0.012764,0.161903,-0.433993,-0.502236,0.172705,0.0,,,,,,,,,,,,,,,,,,,,
568.0,146366731.0,0.986367,-0.009968,-0.012934,0.16375,-0.340853,-0.169844,0.193757,0.0,,,,,,,,,,,,,,,,,,,,
569.0,146383398.0,0.985698,-0.010024,-0.012802,0.167737,0.211906,0.112358,0.049431,0.0,,,,,,,,,,,,,,,,,,,,
570.0,146400065.0,0.985176,-0.010169,-0.012184,0.170813,0.165776,-0.092129,0.328884,0.0,,,,,,,,,,,,,,,,,,,,
571.0,146416732.0,0.985985,-0.010191,-0.012459,0.166057,-0.892444,-0.306157,0.037807,0.0,,,,,,,,,,,,,,,,,,,,
572.0,146433399.0,0.986816,-0.009967,-0.012712,0.16104,0.045462,-0.147225,0.11035,0.0,,,,,,,,,,,,,,,,,,,,
573.0,146450066.0,0.986987,-0.009947,-0.012717,0.159989,0.196511,0.201737,0.170517,0.0,,,,,,,,,,,,,,,,,,,,
574.0,146466733.0,0.986988,-0.009952,-0.012718,0.159981,0.053805,0.032896,0.155484,0.0,,,,,,,,,,,,,,,,,,,,
575.0,146483400.0,0.986988,-0.009944,-0.012714,0.159981,0.039006,0.034858,0.190969,0.0,,,,,,,,,,,,,,,,,,,,
576.0,146500067.0,0.986988,-0.00994,-0.012719,0.159983,0.030027,0.033757,0.130485,0.0,,,,,,,,,,,,,,,,,,,,
577.0,146516734.0,0.986988,-0.009937,-0.012701,0.159986,0.019669,0.022884,0.117602,0.0,,,,,,,,,,,,,,,,,,,,
578.0,146533401.0,0.986988,-0.009938,-0.012695,0.159981,0.004467,0.007791,0.180516,0.0,,,,,,,,,,,,,,,,,,,,
579.0,146550068.0,0.986989,-0.009945,-0.012681,0.159978,-0.017965,0.013764,0.108114,0.0,,,,,,,,,,,,,,,,,,,,
580.0,146566735.0,0.98699,-0.009947,-0.012669,0.159976,-0.013373,0.015915,0.187107,0.0,,,,,,,,,,,,,,,,,,,,
581.0,146583402.0,0.986988,-0.009948,-0.012682,0.159983,0.008207,0.019702,0.178674,0.0,,,,,,,,,,,,,,,,,,,,
582.0,146600069.0,0.986989,-0.009941,-0.012686,0.159975,0.002805,0.025048,0.094049,0.0,,,,,,,,,,,,,,,,,,,,
583.0,146616736.0,0.98699,-0.009941,-0.012678,0.159971,0.012474,0.015951,0.152818,0.0,,,,,,,,,,,,,,,,,,,,
584.0,146633403.0,0.986991,-0.009943,-0.012676,0.159964,0.028236,0.030264,0.198491,0.0,,,,,,,,,,,,,,,,,,,,
585.0,146650070.0,0.986992,-0.009942,-0.01268,0.159959,0.041412,0.021118,0.13633,0.0,,,,,,,,,,,,,,,,,,,,
586.0,146666737.0,0.986993,-0.009947,-0.012685,0.159954,0.045075,0.036127,0.17098,0.0,,,,,,,,,,,,,,,,,,,,
587.0,146683404.0,0.986993,-0.009947,-0.012694,0.159953,0.057913,0.013716,0.184756,0.0,,,,,,,,,,,,,,,,,,,,
588.0,146700071.0,0.986992,-0.009956,-0.012686,0.159957,0.044175,0.010267,0.12524,0.0,,,,,,,,,,,,,,,,,,,,
589.0,146716738.0,0.986993,-0.009961,-0.012693,0.159952,0.03108,0.022547,0.167648,0.0,,,,,,,,,,,,,,,,,,,,
590.0,146733405.0,0.986993,-0.009949,-0.012696,0.159951,0.027082,0.021122,0.158835,0.0,,,,,,,,,,,,,,,,,,,,
591.0,146750072.0,0.986994,-0.009942,-0.012705,0.159947,0.010365,0.010336,0.131326,0.0,,,,,,,,,,,,,,,,,,,,
592.0,146766739.0,0.986995,-0.009943,-0.012699,0.15994,-0.01302,0.017801,0.138217,0.0,,,,,,,,,,,,,,,,,,,,
593.0,146783406.0,0.986995,-0.009939,-0.012692,0.15994,-0.024226,0.033757,0.1667,0.0,,,,,,,,,,,,,,,,,,,,
594.0,146800073.0,0.986995,-0.009942,-0.012697,0.159942,-0.029927,0.037664,0.142029,0.0,,,,,,,,,,,,,,,,,,,,
595.0,146816740.0,0.986994,-0.009953,-0.012696,0.159945,-0.001553,0.038559,0.141109,0.0,,,,,,,,,,,,,,,,,,,,
596.0,146833407.0,0.986995,-0.009965,-0.012702,0.159941,0.008919,0.020873,0.147947,0.0,,,,,,,,,,,,,,,,,,,,
597.0,146850074.0,0.986996,-0.009964,-0.012709,0.159934,0.03272,0.023855,0.142082,0.0,,,,,,,,,,,,,,,,,,,,
598.0,146866741.0,0.986995,-0.009966,-0.01272,0.159938,0.037625,0.011515,0.141529,0.0,,,,,,,,,,,,,,,,,,,,
599.0,146883408.0,0.986997,-0.009968,-0.012718,0.159927,0.048394,0.011276,0.164297,0.0,,,,,,,,,,,,,,,,,,,,
600.0,146900075.0,0.986997,-0.009967,-0.012735,0.159926,0.051141,0.012772,0.170954,0.0,,,,,,,,,,,,,,,,,,,,
601.0,146916742.0,0.986996,-0.009965,-0.01274,0.159926,0.044839,0.007413,0.1406,0.0,,,,,,,,,,,,,,,,,,,,
602.0,146933409.0,0.986996,-0.009963,-0.012741,0.159927,0.03189,0.020396,0.113416,0.0,,,,,,,,,,,,,,,,,,,,
603.0,146950076.0,0.986996,-0.00997,-0.012741,0.159929,0.023886,0.049526,0.140151,0.0,,,,,,,,,,,,,,,,,,,,
604.0,146966743.0,0.986995,-0.009975,-0.012738,0.159935,0.001989,0.03237,0.164981,0.0,,,,,,,,,,,,,,,,,,,,
605.0,146983410.0,0.986996,-0.009973,-0.012731,0.15993,-0.010565,0.031831,0.134439,0.0,,,,,,,,,,,,,,,,,,,,
606.0,147000077.0,0.986995,-0.009978,-0.012726,0.159934,0.006195,0.000964,0.157924,0.0,,,,,,,,,,,,,,,,,,,,
607.0,147016744.0,0.986996,-0.00998,-0.01272,0.159927,0.00206,0.010132,0.138744,0.0,,,,,,,,,,,,,,,,,,,,
608.0,147033411.0,0.986997,-0.009989,-0.012718,0.159925,0.003415,0.00471,0.155533,0.0,,,,,,,,,,,,,,,,,,,,
609.0,147050078.0,0.986997,-0.00999,-0.012713,0.159922,0.017447,0.009645,0.15626,0.0,,,,,,,,,,,,,,,,,,,,
610.0,147066745.0,0.986997,-0.009992,-0.012707,0.159923,0.043794,0.042859,0.135737,0.0,,,,,,,,,,,,,,,,,,,,
611.0,147083412.0,0.986998,-0.009998,-0.012711,0.159914,0.042931,0.041148,0.148033,0.0,,,,,,,,,,,,,,,,,,,,
612.0,147100079.0,0.986999,-0.009999,-0.01271,0.15991,0.032859,0.04034,0.143461,0.0,,,,,,,,,,,,,,,,,,,,
613.0,147116746.0,0.987,-0.009997,-0.012698,0.159907,0.040662,0.028879,0.151002,0.0,,,,,,,,,,,,,,,,,,,,
614.0,147133413.0,0.987,-0.009997,-0.012688,0.159906,0.054613,0.021895,0.136201,0.0,,,,,,,,,,,,,,,,,,,,
615.0,147150080.0,0.987,-0.009992,-0.012691,0.159904,0.039384,0.013812,0.159438,0.0,,,,,,,,,,,,,,,,,,,,
616.0,147166747.0,0.987,-0.009984,-0.012689,0.159907,0.01385,0.011987,0.146442,0.0,,,,,,,,,,,,,,,,,,,,
617.0,147183414.0,0.987,-0.009976,-0.012689,0.159905,-0.004004,0.004384,0.120568,0.0,,,,,,,,,,,,,,,,,,,,
618.0,147200081.0,0.987001,-0.009979,-0.0127,0.159903,-0.01308,0.026192,0.150831,0.0,,,,,,,,,,,,,,,,,,,,
619.0,147216748.0,0.987002,-0.00999,-0.012686,0.159895,-0.012273,0.025364,0.141757,0.0,,,,,,,,,,,,,,,,,,,,
620.0,147233415.0,0.987002,-0.009998,-0.012686,0.159895,-0.000123,0.03001,0.142564,0.0,,,,,,,,,,,,,,,,,,,,
621.0,147250082.0,0.987002,-0.010001,-0.01267,0.159893,0.017113,0.024639,0.160848,0.0,,,,,,,,,,,,,,,,,,,,
622.0,147266749.0,0.987004,-0.010006,-0.012677,0.15988,0.02251,0.026342,0.130816,0.0,,,,,,,,,,,,,,,,,,,,
623.0,147283416.0,0.987005,-0.010007,-0.012682,0.159875,0.041215,0.024782,0.125413,0.0,,,,,,,,,,,,,,,,,,,,
624.0,147300083.0,0.987005,-0.010001,-0.012676,0.159877,0.045374,0.011555,0.147127,0.0,,,,,,,,,,,,,,,,,,,,
625.0,147316750.0,0.987004,-0.01,-0.012675,0.159886,0.045051,0.019581,0.158859,0.0,,,,,,,,,,,,,,,,,,,,
626.0,147333417.0,0.987002,-0.009991,-0.012683,0.159898,0.036764,0.005254,0.14405,0.0,,,,,,,,,,,,,,,,,,,,
627.0,147350084.0,0.987001,-0.009988,-0.012685,0.159899,0.029654,0.002801,0.156415,0.0,,,,,,,,,,,,,,,,,,,,
628.0,147366751.0,0.987002,-0.009994,-0.012682,0.159894,0.004306,0.010684,0.160183,0.0,,,,,,,,,,,,,,,,,,,,
629.0,147383418.0,0.987002,-0.009992,-0.012678,0.159897,0.005882,0.024443,0.138186,0.0,,,,,,,,,,,,,,,,,,,,
630.0,147400085.0,0.987002,-0.010002,-0.012673,0.159893,-0.002074,0.032183,0.172885,0.0,,,,,,,,,,,,,,,,,,,,
631.0,147416752.0,0.987003,-0.010004,-0.012676,0.159889,-0.009965,0.036949,0.160028,0.0,,,,,,,,,,,,,,,,,,,,
632.0,147433419.0,0.987002,-0.010002,-0.012675,0.159893,0.003049,0.040357,0.140644,0.0,,,,,,,,,,,,,,,,,,,,
633.0,147450086.0,0.987004,-0.010005,-0.012669,0.159886,-0.010871,0.038921,0.141594,0.0,,,,,,,,,,,,,,,,,,,,
634.0,147466753.0,0.987005,-0.010006,-0.012672,0.159879,0.013033,0.016892,0.132381,0.0,,,,,,,,,,,,,,,,,,,,
635.0,147483420.0,0.987005,-0.010014,-0.012669,0.159879,0.045901,0.007175,0.152139,0.0,,,,,,,,,,,,,,,,,,,,
636.0,147500087.0,0.987005,-0.010027,-0.012665,0.159875,0.05069,0.016999,0.162469,0.0,,,,,,,,,,,,,,,,,,,,
637.0,147516754.0,0.987005,-0.010036,-0.012666,0.159876,0.055393,0.011326,0.150679,0.0,,,,,,,,,,,,,,,,,,,,
638.0,147533421.0,0.987006,-0.010035,-0.012657,0.159872,0.038504,0.005986,0.138328,0.0,,,,,,,,,,,,,,,,,,,,
639.0,147550088.0,0.987005,-0.01004,-0.012655,0.159877,0.046083,0.02172,0.157701,0.0,,,,,,,,,,,,,,,,,,,,
640.0,147566755.0,0.987005,-0.010042,-0.012656,0.159878,0.030306,0.022403,0.158334,0.0,,,,,,,,,,,,,,,,,,,,
641.0,147583422.0,0.987004,-0.010035,-0.012663,0.15988,0.011575,0.032496,0.16225,0.0,,,,,,,,,,,,,,,,,,,,
642.0,147600089.0,0.987005,-0.010043,-0.01265,0.159878,0.001969,0.029321,0.171006,0.0,,,,,,,,,,,,,,,,,,,,
643.0,147616756.0,0.987006,-0.010043,-0.012647,0.159872,0.007595,0.032696,0.125681,0.0,,,,,,,,,,,,,,,,,,,,
644.0,147633423.0,0.987006,-0.010044,-0.012636,0.159873,-0.010074,0.027736,0.144631,0.0,,,,,,,,,,,,,,,,,,,,
645.0,147650090.0,0.987007,-0.010047,-0.012644,0.159864,-0.01622,0.010091,0.124418,0.0,,,,,,,,,,,,,,,,,,,,
646.0,147666757.0,0.987007,-0.010047,-0.012626,0.159862,-0.003192,0.00933,0.148699,0.0,,,,,,,,,,,,,,,,,,,,
647.0,147683424.0,0.987007,-0.010041,-0.012638,0.159865,-0.000886,-0.015347,0.160148,0.0,,,,,,,,,,,,,,,,,,,,
648.0,147700091.0,0.987005,-0.010038,-0.012636,0.159876,0.02495,0.01781,0.118757,0.0,,,,,,,,,,,,,,,,,,,,
649.0,147716758.0,0.987004,-0.010042,-0.012638,0.159881,0.053281,0.025674,0.162287,0.0,,,,,,,,,,,,,,,,,,,,
650.0,147733425.0,0.987005,-0.010038,-0.012638,0.15988,0.057243,0.046689,0.144908,0.0,,,,,,,,,,,,,,,,,,,,
651.0,147750092.0,0.987005,-0.01004,-0.012625,0.159881,0.053842,0.0533,0.160412,0.0,,,,,,,,,,,,,,,,,,,,
652.0,147766759.0,0.987006,-0.010037,-0.012628,0.159875,0.033308,0.030959,0.145782,0.0,,,,,,,,,,,,,,,,,,,,
653.0,147783426.0,0.987007,-0.010036,-0.012627,0.159867,0.027281,0.030457,0.190351,0.0,,,,,,,,,,,,,,,,,,,,
654.0,147800093.0,0.987007,-0.010043,-0.012629,0.159865,0.022663,0.029904,0.146011,0.0,,,,,,,,,,,,,,,,,,,,
655.0,147816760.0,0.987006,-0.010043,-0.012628,0.159869,-0.014741,0.023846,0.113789,0.0,,,,,,,,,,,,,,,,,,,,
656.0,147833427.0,0.987007,-0.010039,-0.012631,0.159867,-0.007458,0.018333,0.147261,0.0,,,,,,,,,,,,,,,,,,,,
657.0,147850094.0,0.987006,-0.010042,-0.012635,0.159874,-0.006109,0.023826,0.135571,0.0,,,,,,,,,,,,,,,,,,,,
658.0,147866761.0,0.987006,-0.01004,-0.012627,0.159869,0.004341,0.026487,0.131774,0.0,,,,,,,,,,,,,,,,,,,,
659.0,147883428.0,0.987009,-0.010034,-0.012627,0.159852,0.012837,0.035903,0.12695,0.0,,,,,,,,,,,,,,,,,,,,
660.0,147900095.0,0.987011,-0.010035,-0.012638,0.159841,0.027247,0.040268,0.143454,0.0,,,,,,,,,,,,,,,,,,,,
661.0,147916762.0,0.987012,-0.010032,-0.012628,0.159834,0.036188,0.019727,0.151326,0.0,,,,,,,,,,,,,,,,,,,,
662.0,147933429.0,0.987013,-0.010027,-0.012621,0.159832,0.038605,0.006525,0.157681,0.0,,,,,,,,,,,,,,,,,,,,
663.0,147950096.0,0.987012,-0.010025,-0.012617,0.159836,0.037084,0.020797,0.171676,0.0,,,,,,,,,,,,,,,,,,,,
664.0,147966763.0,0.987011,-0.010024,-0.012616,0.159845,0.044662,0.016355,0.162059,0.0,,,,,,,,,,,,,,,,,,,,
665.0,147983430.0,0.98701,-0.010022,-0.012624,0.159847,0.031225,0.003498,0.134844,0.0,,,,,,,,,,,,,,,,,,,,
666.0,148000097.0,0.987011,-0.010026,-0.012622,0.15984,0.027147,0.028453,0.127065,0.0,,,,,,,,,,,,,,,,,,,,
667.0,148016764.0,0.987011,-0.010026,-0.012619,0.15984,0.015352,0.040926,0.109104,0.0,,,,,,,,,,,,,,,,,,,,
668.0,148033431.0,0.987012,-0.010019,-0.01261,0.159838,0.000406,0.035616,0.14608,0.0,,,,,,,,,,,,,,,,,,,,
669.0,148050098.0,0.987012,-0.010011,-0.012611,0.159835,-0.003032,0.051515,0.171755,0.0,,,,,,,,,,,,,,,,,,,,
670.0,148066765.0,0.987014,-0.01001,-0.012607,0.159827,-0.001865,0.048178,0.121456,0.0,,,,,,,,,,,,,,,,,,,,
671.0,148083432.0,0.987015,-0.010018,-0.012608,0.159821,0.004685,0.020726,0.157337,0.0,,,,,,,,,,,,,,,,,,,,
672.0,148100099.0,0.987015,-0.010014,-0.012615,0.159819,0.025122,0.005191,0.124213,0.0,,,,,,,,,,,,,,,,,,,,
673.0,148116766.0,0.987015,-0.010008,-0.012611,0.159818,0.030065,0.024913,0.160232,0.0,,,,,,,,,,,,,,,,,,,,
674.0,148133433.0,0.987016,-0.010008,-0.012615,0.159814,0.045684,0.019119,0.185629,0.0,,,,,,,,,,,,,,,,,,,,
675.0,148150100.0,0.987017,-0.009996,-0.01261,0.159809,0.055559,0.002517,0.142638,0.0,,,,,,,,,,,,,,,,,,,,
676.0,148166767.0,0.987018,-0.00999,-0.012602,0.159803,0.046694,0.013334,0.159925,0.0,,,,,,,,,,,,,,,,,,,,
677.0,148183434.0,0.987018,-0.009984,-0.012608,0.159803,0.026992,0.023333,0.164623,0.0,,,,,,,,,,,,,,,,,,,,
678.0,148200101.0,0.987018,-0.009982,-0.012607,0.1598,0.016993,0.030198,0.168875,0.0,,,,,,,,,,,,,,,,,,,,
679.0,148216768.0,0.987018,-0.009977,-0.012613,0.1598,0.006674,0.041602,0.146922,0.0,,,,,,,,,,,,,,,,,,,,
680.0,148233435.0,0.987019,-0.009969,-0.012612,0.159796,0.002859,0.019664,0.14728,0.0,,,,,,,,,,,,,,,,,,,,
681.0,148250102.0,0.987019,-0.009969,-0.01263,0.159796,0.007897,0.003977,0.118233,0.0,,,,,,,,,,,,,,,,,,,,
682.0,148266769.0,0.987018,-0.009964,-0.012632,0.159799,-0.004721,0.007884,0.133722,0.0,,,,,,,,,,,,,,,,,,,,
683.0,148283436.0,0.987019,-0.009962,-0.012634,0.159797,0.00656,0.001038,0.157381,0.0,,,,,,,,,,,,,,,,,,,,
684.0,148300103.0,0.987019,-0.009957,-0.012638,0.159799,0.016736,0.013135,0.148641,0.0,,,,,,,,,,,,,,,,,,,,
685.0,148316770.0,0.987018,-0.009947,-0.012629,0.159804,0.0063,0.02802,0.129928,0.0,,,,,,,,,,,,,,,,,,,,
686.0,148333437.0,0.987018,-0.009944,-0.012634,0.159801,0.022651,0.024174,0.149368,0.0,,,,,,,,,,,,,,,,,,,,
687.0,148350104.0,0.987019,-0.00995,-0.012644,0.159798,0.024168,0.040011,0.139336,0.0,,,,,,,,,,,,,,,,,,,,
688.0,148366771.0,0.987016,-0.009945,-0.012646,0.159812,0.027686,0.043952,0.152226,0.0,,,,,,,,,,,,,,,,,,,,
689.0,148383438.0,0.987017,-0.009938,-0.012654,0.159811,0.030568,0.033194,0.18287,0.0,,,,,,,,,,,,,,,,,,,,
690.0,148400105.0,0.987017,-0.009944,-0.012651,0.15981,0.028743,0.008674,0.148911,0.0,,,,,,,,,,,,,,,,,,,,
691.0,148416772.0,0.987016,-0.009945,-0.012653,0.159814,0.021392,0.010325,0.152905,0.0,,,,,,,,,,,,,,,,,,,,
692.0,148433439.0,0.987015,-0.009953,-0.012656,0.159821,0.013688,0.004917,0.14198,0.0,,,,,,,,,,,,,,,,,,,,
693.0,148450106.0,0.987015,-0.009951,-0.012656,0.159822,0.016926,0.005442,0.142182,0.0,,,,,,,,,,,,,,,,,,,,
694.0,148466773.0,0.987014,-0.009954,-0.012653,0.159829,0.002736,0.019501,0.152133,0.0,,,,,,,,,,,,,,,,,,,,
695.0,148483440.0,0.987014,-0.009947,-0.012654,0.159826,0.019402,0.029744,0.164551,0.0,,,,,,,,,,,,,,,,,,,,
696.0,148500107.0,0.986991,-0.009946,-0.01273,0.159962,0.002405,0.049219,0.153524,0.0,,,,,,,,,,,,,,,,,,,,
697.0,148516774.0,0.986991,-0.009948,-0.01273,0.159963,0.03406,0.044625,0.132257,0.0,,,,,,,,,,,,,,,,,,,,
698.0,148533441.0,0.986992,-0.009951,-0.012728,0.159955,0.020469,0.027968,0.14782,0.0,,,,,,,,,,,,,,,,,,,,
699.0,148550108.0,0.986993,-0.009944,-0.012725,0.159952,0.040144,0.023499,0.176429,0.0,,,,,,,,,,,,,,,,,,,,
700.0,148566775.0,0.986993,-0.009947,-0.012719,0.159952,0.028529,0.012276,0.131698,0.0,,,,,,,,,,,,,,,,,,,,
701.0,148583442.0,0.986994,-0.009941,-0.012722,0.159947,0.045982,0.008788,0.131653,0.0,,,,,,,,,,,,,,,,,,,,
702.0,148600109.0,0.986994,-0.009949,-0.012727,0.159942,0.030139,-0.007761,0.159275,0.0,,,,,,,,,,,,,,,,,,,,
703.0,148616776.0,0.986994,-0.00994,-0.012726,0.159942,0.023713,0.006921,0.180783,0.0,,,,,,,,,,,,,,,,,,,,
704.0,148633443.0,0.986995,-0.009938,-0.012728,0.159939,0.037454,0.018911,0.110193,0.0,,,,,,,,,,,,,,,,,,,,
705.0,148650110.0,0.986994,-0.009929,-0.012732,0.159942,0.002729,0.04544,0.181629,0.0,,,,,,,,,,,,,,,,,,,,
706.0,148666777.0,0.986995,-0.009929,-0.012731,0.159935,-0.003111,0.037305,0.134873,0.0,,,,,,,,,,,,,,,,,,,,
707.0,148683444.0,0.986996,-0.009933,-0.012739,0.159934,-0.003867,0.035259,0.154905,0.0,,,,,,,,,,,,,,,,,,,,
708.0,148700111.0,0.986997,-0.009934,-0.012752,0.159926,-0.011928,0.04053,0.173693,0.0,,,,,,,,,,,,,,,,,,,,
709.0,148716778.0,0.986996,-0.009934,-0.012757,0.159927,-0.003639,0.001136,0.111513,0.0,,,,,,,,,,,,,,,,,,,,
710.0,148733445.0,0.986998,-0.009939,-0.012756,0.15992,0.011709,-0.013105,0.158741,0.0,,,,,,,,,,,,,,,,,,,,
711.0,148750112.0,0.986996,-0.009943,-0.012752,0.159929,0.035671,0.002626,0.164457,0.0,,,,,,,,,,,,,,,,,,,,
712.0,148766779.0,0.986995,-0.009942,-0.012752,0.159935,0.028662,0.000534,0.145642,0.0,,,,,,,,,,,,,,,,,,,,
713.0,148783446.0,0.986996,-0.009946,-0.012751,0.15993,0.038694,0.025796,0.180976,0.0,,,,,,,,,,,,,,,,,,,,
714.0,148800113.0,0.986994,-0.009953,-0.012761,0.15994,0.041335,0.029935,0.107767,0.0,,,,,,,,,,,,,,,,,,,,
715.0,148816780.0,0.986994,-0.009949,-0.012759,0.159939,0.051282,0.03701,0.14301,0.0,,,,,,,,,,,,,,,,,,,,
716.0,148833447.0,0.986994,-0.009946,-0.012747,0.159944,0.044087,0.056784,0.171475,0.0,,,,,,,,,,,,,,,,,,,,
717.0,148850114.0,0.986994,-0.009936,-0.012749,0.159941,0.025085,0.035865,0.151171,0.0,,,,,,,,,,,,,,,,,,,,
718.0,148866781.0,0.986995,-0.009932,-0.012747,0.159934,0.013637,0.031186,0.143409,0.0,,,,,,,,,,,,,,,,,,,,
719.0,148883448.0,0.986995,-0.009935,-0.012741,0.159938,0.002955,0.005049,0.14604,0.0,,,,,,,,,,,,,,,,,,,,
720.0,148900115.0,0.986996,-0.009934,-0.012739,0.159933,0.00045,-0.003028,0.130476,0.0,,,,,,,,,,,,,,,,,,,,
721.0,148916782.0,0.986995,-0.009936,-0.012744,0.159935,-0.00472,0.004993,0.124829,0.0,,,,,,,,,,,,,,,,,,,,
722.0,148933449.0,0.986995,-0.009946,-0.012751,0.159937,0.000465,-0.003757,0.125001,0.0,,,,,,,,,,,,,,,,,,,,
723.0,148950116.0,0.986994,-0.009946,-0.012759,0.15994,0.005746,0.015575,0.147546,0.0,,,,,,,,,,,,,,,,,,,,
724.0,148966783.0,0.986994,-0.009931,-0.012768,0.159941,0.000914,0.036413,0.18233,0.0,,,,,,,,,,,,,,,,,,,,
725.0,148983450.0,0.986993,-0.009931,-0.012767,0.159944,0.033473,0.041524,0.136566,0.0,,,,,,,,,,,,,,,,,,,,
726.0,149000117.0,0.986994,-0.009921,-0.01277,0.159941,0.031767,0.034177,0.127769,0.0,,,,,,,,,,,,,,,,,,,,
727.0,149016784.0,0.986994,-0.00992,-0.012776,0.159939,0.04366,0.028098,0.158859,0.0,,,,,,,,,,,,,,,,,,,,
728.0,149033451.0,0.986996,-0.00992,-0.012782,0.159927,0.055406,0.007082,0.136071,0.0,,,,,,,,,,,,,,,,,,,,
729.0,149050118.0,0.986996,-0.009917,-0.012764,0.15993,0.04186,0.013264,0.2013,0.0,,,,,,,,,,,,,,,,,,,,
730.0,149066785.0,0.986996,-0.009927,-0.012773,0.159926,0.035451,0.010115,0.142027,0.0,,,,,,,,,,,,,,,,,,,,
731.0,149083452.0,0.986996,-0.009933,-0.012777,0.159931,0.029203,-0.010215,0.144148,0.0,,,,,,,,,,,,,,,,,,,,
732.0,149100119.0,0.986993,-0.009926,-0.012767,0.159946,0.008987,0.015921,0.144107,0.0,,,,,,,,,,,,,,,,,,,,
733.0,149116786.0,0.986992,-0.009925,-0.012763,0.159955,-0.000163,0.012573,0.151212,0.0,,,,,,,,,,,,,,,,,,,,
734.0,149133453.0,0.986991,-0.009937,-0.012765,0.15996,-0.011415,0.028136,0.129421,0.0,,,,,,,,,,,,,,,,,,,,
735.0,149150120.0,0.986991,-0.009933,-0.012746,0.15996,0.000322,0.038726,0.174362,0.0,,,,,,,,,,,,,,,,,,,,
736.0,149166787.0,0.986993,-0.00993,-0.012745,0.159946,-0.012979,0.027192,0.119758,0.0,,,,,,,,,,,,,,,,,,,,
737.0,149183454.0,0.986993,-0.00993,-0.012745,0.159948,0.02354,0.024416,0.146066,0.0,,,,,,,,,,,,,,,,,,,,
738.0,149200121.0,0.986993,-0.00993,-0.012733,0.159948,0.02643,0.017581,0.16476,0.0,,,,,,,,,,,,,,,,,,,,
739.0,149216788.0,0.986994,-0.009927,-0.012739,0.159942,0.041964,0.008611,0.130215,0.0,,,,,,,,,,,,,,,,,,,,
740.0,149233455.0,0.986993,-0.009939,-0.012734,0.159952,0.043653,0.001167,0.146684,0.0,,,,,,,,,,,,,,,,,,,,
741.0,149250122.0,0.986992,-0.009943,-0.012736,0.159957,0.043422,0.020351,0.181293,0.0,,,,,,,,,,,,,,,,,,,,
742.0,149266789.0,0.986991,-0.009932,-0.012735,0.159965,0.03445,0.034174,0.142878,0.0,,,,,,,,,,,,,,,,,,,,
743.0,149283456.0,0.98699,-0.009935,-0.012728,0.15997,0.040105,0.042402,0.140985,0.0,,,,,,,,,,,,,,,,,,,,
744.0,149300123.0,0.986991,-0.009941,-0.012732,0.159964,0.004732,0.045793,0.15045,0.0,,,,,,,,,,,,,,,,,,,,
745.0,149316790.0,0.98699,-0.009924,-0.01273,0.159968,0.008368,0.031474,0.130019,0.0,,,,,,,,,,,,,,,,,,,,
746.0,149333457.0,0.986989,-0.009933,-0.012735,0.159975,0.004174,0.021568,0.137364,0.0,,,,,,,,,,,,,,,,,,,,
747.0,149350124.0,0.986987,-0.009932,-0.01274,0.159985,-0.007212,0.013102,0.157446,0.0,,,,,,,,,,,,,,,,,,,,
748.0,149366791.0,0.986988,-0.009924,-0.012749,0.159983,0.008544,0.015497,0.135312,0.0,,,,,,,,,,,,,,,,,,,,
749.0,149383458.0,0.986989,-0.009911,-0.012747,0.159976,-0.0029,0.004276,0.140749,0.0,,,,,,,,,,,,,,,,,,,,
750.0,149400125.0,0.986988,-0.009909,-0.012746,0.159984,0.008956,0.010828,0.140354,0.0,,,,,,,,,,,,,,,,,,,,
751.0,149416792.0,0.986987,-0.009909,-0.012746,0.15999,0.022837,0.035834,0.159268,0.0,,,,,,,,,,,,,,,,,,,,
752.0,149433459.0,0.986988,-0.00991,-0.012741,0.159985,0.030929,0.053584,0.145649,0.0,,,,,,,,,,,,,,,,,,,,
753.0,149450126.0,0.986987,-0.009911,-0.012745,0.159986,0.055459,0.044957,0.124232,0.0,,,,,,,,,,,,,,,,,,,,
754.0,149466793.0,0.986988,-0.009911,-0.012753,0.159984,0.026163,0.038085,0.158237,0.0,,,,,,,,,,,,,,,,,,,,
755.0,149483460.0,0.986987,-0.009902,-0.01275,0.159988,0.029435,0.050067,0.175189,0.0,,,,,,,,,,,,,,,,,,,,
756.0,149500127.0,0.986988,-0.009901,-0.012769,0.159983,0.035474,0.021825,0.152882,0.0,,,,,,,,,,,,,,,,,,,,
757.0,149516794.0,0.986988,-0.009899,-0.012767,0.159981,0.014042,0.004619,0.135968,0.0,,,,,,,,,,,,,,,,,,,,
758.0,149533461.0,0.986989,-0.009898,-0.012752,0.159975,0.009766,-0.00599,0.143256,0.0,,,,,,,,,,,,,,,,,,,,
759.0,149550128.0,0.986988,-0.009904,-0.012761,0.159981,0.000846,0.005805,0.100785,0.0,,,,,,,,,,,,,,,,,,,,
760.0,149566795.0,0.986988,-0.009914,-0.012758,0.159981,-0.007669,0.010985,0.158362,0.0,,,,,,,,,,,,,,,,,,,,
761.0,149583462.0,0.986989,-0.009916,-0.012753,0.159977,-0.001306,0.028931,0.164603,0.0,,,,,,,,,,,,,,,,,,,,
762.0,149600129.0,0.986989,-0.009911,-0.012756,0.159974,0.017254,0.041853,0.159982,0.0,,,,,,,,,,,,,,,,,,,,
763.0,149616796.0,0.986989,-0.009906,-0.012756,0.159975,0.04028,0.04803,0.091145,0.0,,,,,,,,,,,,,,,,,,,,
764.0,149633463.0,0.986988,-0.009904,-0.012745,0.159981,0.0503,0.03593,0.131742,0.0,,,,,,,,,,,,,,,,,,,,
765.0,149650130.0,0.986987,-0.009909,-0.01275,0.159987,0.038013,0.021263,0.188112,0.0,,,,,,,,,,,,,,,,,,,,
766.0,149666797.0,0.986988,-0.009901,-0.012762,0.159983,0.038524,0.024613,0.138769,0.0,,,,,,,,,,,,,,,,,,,,
767.0,149683464.0,0.986988,-0.009908,-0.012755,0.159981,0.029792,0.013154,0.146324,0.0,,,,,,,,,,,,,,,,,,,,
768.0,149700131.0,0.986987,-0.009911,-0.012762,0.159989,0.025968,0.012532,0.117163,0.0,,,,,,,,,,,,,,,,,,,,
769.0,149716798.0,0.986986,-0.009907,-0.012743,0.159996,0.011874,0.009695,0.162893,0.0,,,,,,,,,,,,,,,,,,,,
770.0,149733465.0,0.986987,-0.009901,-0.012756,0.159988,-0.00211,0.016879,0.163527,0.0,,,,,,,,,,,,,,,,,,,,
771.0,149750132.0,0.986987,-0.009904,-0.012756,0.159991,-0.010286,0.019455,0.119052,0.0,,,,,,,,,,,,,,,,,,,,
772.0,149766799.0,0.986987,-0.009896,-0.012745,0.15999,-0.024827,0.024777,0.156286,0.0,,,,,,,,,,,,,,,,,,,,
773.0,149783466.0,0.986986,-0.009898,-0.01275,0.159994,-0.025292,0.030642,0.115753,0.0,,,,,,,,,,,,,,,,,,,,
774.0,149800133.0,0.986988,-0.009891,-0.01274,0.159985,0.016609,0.042931,0.15144,0.0,,,,,,,,,,,,,,,,,,,,
775.0,149816800.0,0.986989,-0.009886,-0.012739,0.159977,0.023388,0.013317,0.176301,0.0,,,,,,,,,,,,,,,,,,,,
776.0,149833467.0,0.98699,-0.009898,-0.01274,0.159972,0.025372,0.003605,0.132416,0.0,,,,,,,,,,,,,,,,,,,,
777.0,149850134.0,0.986989,-0.009894,-0.01274,0.159975,0.046192,0.021171,0.146791,0.0,,,,,,,,,,,,,,,,,,,,
778.0,149866801.0,0.986989,-0.009892,-0.012736,0.159975,0.0411,0.016398,0.150259,0.0,,,,,,,,,,,,,,,,,,,,
779.0,149883468.0,0.986988,-0.009883,-0.012732,0.159983,0.043112,0.025603,0.149678,0.0,,,,,,,,,,,,,,,,,,,,
780.0,149900135.0,0.986988,-0.009893,-0.012731,0.159986,0.039784,0.028552,0.129782,0.0,,,,,,,,,,,,,,,,,,,,
781.0,149916802.0,0.986986,-0.009897,-0.012732,0.159996,0.006842,0.04042,0.199413,0.0,,,,,,,,,,,,,,,,,,,,
782.0,149933469.0,0.986985,-0.009906,-0.012728,0.160002,0.006661,0.038868,0.1113,0.0,,,,,,,,,,,,,,,,,,,,
783.0,149950136.0,0.986985,-0.0099,-0.012724,0.160001,-0.003626,0.037498,0.125265,0.0,,,,,,,,,,,,,,,,,,,,
784.0,149966803.0,0.986985,-0.009896,-0.012724,0.160002,-0.013107,0.036091,0.136333,0.0,,,,,,,,,,,,,,,,,,,,
785.0,149983470.0,0.986985,-0.009897,-0.012721,0.160002,-0.001796,0.012884,0.164931,0.0,,,,,,,,,,,,,,,,,,,,
786.0,150000137.0,0.986985,-0.009887,-0.012733,0.160003,0.013089,0.012156,0.14817,0.0,,,,,,,,,,,,,,,,,,,,
787.0,150016804.0,0.986985,-0.009881,-0.012738,0.160001,0.01218,-0.000114,0.132668,0.0,,,,,,,,,,,,,,,,,,,,
788.0,150033471.0,0.986985,-0.009891,-0.01274,0.159999,0.031851,0.013466,0.162144,0.0,,,,,,,,,,,,,,,,,,,,
789.0,150050138.0,0.986986,-0.009885,-0.012747,0.159996,0.023988,0.003678,0.157628,0.0,,,,,,,,,,,,,,,,,,,,
790.0,150066805.0,0.986985,-0.009885,-0.012749,0.160004,0.042505,0.024728,0.160503,0.0,,,,,,,,,,,,,,,,,,,,
791.0,150083472.0,0.986984,-0.009884,-0.012749,0.160008,0.045578,0.032253,0.136264,0.0,,,,,,,,,,,,,,,,,,,,
792.0,150100139.0,0.986984,-0.009881,-0.012755,0.160006,0.033017,0.033042,0.131663,0.0,,,,,,,,,,,,,,,,,,,,
793.0,150116806.0,0.986983,-0.009874,-0.012764,0.160011,0.025418,0.028931,0.143471,0.0,,,,,,,,,,,,,,,,,,,,
794.0,150133473.0,0.986983,-0.009879,-0.012766,0.160012,0.006869,0.008598,0.14188,0.0,,,,,,,,,,,,,,,,,,,,
795.0,150150140.0,0.986984,-0.009878,-0.012754,0.16001,0.006326,0.001301,0.169001,0.0,,,,,,,,,,,,,,,,,,,,
796.0,150166807.0,0.986983,-0.009871,-0.012751,0.160013,-0.012393,0.007983,0.133149,0.0,,,,,,,,,,,,,,,,,,,,
797.0,150183474.0,0.986982,-0.009874,-0.01277,0.16002,0.008855,0.015636,0.136421,0.0,,,,,,,,,,,,,,,,,,,,
798.0,150200141.0,0.986982,-0.009871,-0.012768,0.160022,0.023616,0.01684,0.139131,0.0,,,,,,,,,,,,,,,,,,,,
799.0,150216808.0,0.986982,-0.009874,-0.01277,0.160019,0.025545,0.038628,0.150632,0.0,,,,,,,,,,,,,,,,,,,,
800.0,150233475.0,0.986982,-0.009872,-0.012787,0.160017,0.028223,0.042065,0.146975,0.0,,,,,,,,,,,,,,,,,,,,
801.0,150250142.0,0.986982,-0.009871,-0.012784,0.160019,0.032997,0.031852,0.118575,0.0,,,,,,,,,,,,,,,,,,,,
802.0,150266809.0,0.986982,-0.009868,-0.012794,0.160015,0.039891,0.044558,0.121661,0.0,,,,,,,,,,,,,,,,,,,,
803.0,150283476.0,0.986982,-0.00987,-0.012805,0.160014,0.057633,0.024909,0.144517,0.0,,,,,,,,,,,,,,,,,,,,
804.0,150300143.0,0.986982,-0.009872,-0.012803,0.160015,0.026055,0.012162,0.146543,0.0,,,,,,,,,,,,,,,,,,,,
805.0,150316810.0,0.986982,-0.009871,-0.012813,0.160017,0.031802,0.014713,0.165123,0.0,,,,,,,,,,,,,,,,,,,,
806.0,150333477.0,0.986982,-0.009883,-0.012814,0.160016,0.029937,0.018098,0.14467,0.0,,,,,,,,,,,,,,,,,,,,
807.0,150350144.0,0.986981,-0.009886,-0.012823,0.160018,-0.00027,0.017029,0.120247,0.0,,,,,,,,,,,,,,,,,,,,
808.0,150366811.0,0.986981,-0.009891,-0.012836,0.16002,0.000896,0.012888,0.145628,0.0,,,,,,,,,,,,,,,,,,,,
809.0,150383478.0,0.986981,-0.009896,-0.012835,0.160016,-0.00502,0.020025,0.15177,0.0,,,,,,,,,,,,,,,,,,,,
810.0,150400145.0,0.986982,-0.00989,-0.012844,0.160013,-0.017807,0.032311,0.162158,0.0,,,,,,,,,,,,,,,,,,,,
811.0,150416812.0,0.98698,-0.009893,-0.012845,0.160023,0.001254,0.028077,0.124487,0.0,,,,,,,,,,,,,,,,,,,,
812.0,150433479.0,0.98698,-0.009886,-0.012841,0.160026,0.028817,0.023616,0.14512,0.0,,,,,,,,,,,,,,,,,,,,
813.0,150450146.0,0.98698,-0.009878,-0.01285,0.160022,0.019558,0.026878,0.15745,0.0,,,,,,,,,,,,,,,,,,,,
814.0,150466813.0,0.986979,-0.009873,-0.01285,0.160033,0.027108,0.029318,0.152338,0.0,,,,,,,,,,,,,,,,,,,,
815.0,150483480.0,0.986981,-0.009865,-0.012853,0.160021,0.05201,0.022584,0.157981,0.0,,,,,,,,,,,,,,,,,,,,
816.0,150500147.0,0.986999,-0.009939,-0.012795,0.159906,0.043547,0.028193,0.151476,0.0,,,,,,,,,,,,,,,,,,,,
817.0,150516814.0,0.987001,-0.009932,-0.012796,0.159896,0.021709,0.027902,0.155863,0.0,,,,,,,,,,,,,,,,,,,,
818.0,150533481.0,0.987,-0.009938,-0.012791,0.159904,0.024312,0.020966,0.154086,0.0,,,,,,,,,,,,,,,,,,,,
819.0,150550148.0,0.987,-0.009934,-0.012802,0.159904,0.017383,0.02285,0.131549,0.0,,,,,,,,,,,,,,,,,,,,
820.0,150566815.0,0.987001,-0.009938,-0.0128,0.159897,-0.001271,0.026155,0.131717,0.0,,,,,,,,,,,,,,,,,,,,
821.0,150583482.0,0.987001,-0.009941,-0.012801,0.159896,0.004107,0.04748,0.142964,0.0,,,,,,,,,,,,,,,,,,,,
822.0,150600149.0,0.987001,-0.009942,-0.01281,0.159892,0.012268,0.036398,0.153682,0.0,,,,,,,,,,,,,,,,,,,,
823.0,150616816.0,0.987003,-0.009934,-0.01281,0.159882,-0.00447,0.031448,0.179591,0.0,,,,,,,,,,,,,,,,,,,,
824.0,150633483.0,0.987005,-0.009932,-0.012803,0.159873,-0.010001,0.015585,0.133832,0.0,,,,,,,,,,,,,,,,,,,,
825.0,150650150.0,0.987005,-0.00993,-0.012811,0.159871,0.017911,0.0058,0.160959,0.0,,,,,,,,,,,,,,,,,,,,
826.0,150666817.0,0.987003,-0.009926,-0.012822,0.159882,0.034752,0.035509,0.124399,0.0,,,,,,,,,,,,,,,,,,,,
827.0,150683484.0,0.987002,-0.00992,-0.012831,0.159887,0.039741,0.014269,0.138161,0.0,,,,,,,,,,,,,,,,,,,,
828.0,150700151.0,0.987,-0.009917,-0.012828,0.159899,0.038114,0.017966,0.161758,0.0,,,,,,,,,,,,,,,,,,,,
829.0,150716818.0,0.987,-0.00992,-0.012827,0.159902,0.031227,0.029517,0.131781,0.0,,,,,,,,,,,,,,,,,,,,
830.0,150733485.0,0.987001,-0.00992,-0.012831,0.159896,0.024758,0.037551,0.169847,0.0,,,,,,,,,,,,,,,,,,,,
831.0,150750152.0,0.987,-0.009918,-0.012831,0.159898,0.007182,0.022483,0.146086,0.0,,,,,,,,,,,,,,,,,,,,
832.0,150766819.0,0.987002,-0.009914,-0.012831,0.15989,-0.002728,0.023751,0.144581,0.0,,,,,,,,,,,,,,,,,,,,
833.0,150783486.0,0.987002,-0.009908,-0.012832,0.159891,0.002037,0.020073,0.134288,0.0,,,,,,,,,,,,,,,,,,,,
834.0,150800153.0,0.987,-0.009911,-0.01282,0.159904,0.003772,0.026586,0.165422,0.0,,,,,,,,,,,,,,,,,,,,
835.0,150816820.0,0.987,-0.009915,-0.012801,0.1599,0.010688,0.010925,0.150137,0.0,,,,,,,,,,,,,,,,,,,,
836.0,150833487.0,0.987,-0.009922,-0.012806,0.159902,0.01015,0.02086,0.129645,0.0,,,,,,,,,,,,,,,,,,,,
837.0,150850154.0,0.986999,-0.009921,-0.012798,0.159909,0.021799,0.005118,0.131502,0.0,,,,,,,,,,,,,,,,,,,,
838.0,150866821.0,0.987,-0.009918,-0.012803,0.159902,0.014173,0.026905,0.140658,0.0,,,,,,,,,,,,,,,,,,,,
839.0,150883488.0,0.987,-0.009917,-0.012805,0.159902,0.043184,0.035475,0.148871,0.0,,,,,,,,,,,,,,,,,,,,
840.0,150900155.0,0.987,-0.009911,-0.012816,0.159899,0.031375,0.0243,0.145647,0.0,,,,,,,,,,,,,,,,,,,,
841.0,150916822.0,0.987,-0.009907,-0.012821,0.159901,0.049189,0.029047,0.134939,0.0,,,,,,,,,,,,,,,,,,,,
842.0,150933489.0,0.986999,-0.009908,-0.012829,0.159905,0.03484,0.014569,0.142735,0.0,,,,,,,,,,,,,,,,,,,,
843.0,150950156.0,0.986999,-0.009911,-0.012819,0.159909,0.029577,0.032001,0.146107,0.0,,,,,,,,,,,,,,,,,,,,
844.0,150966823.0,0.986997,-0.009907,-0.012828,0.159917,0.010586,0.017826,0.16149,0.0,,,,,,,,,,,,,,,,,,,,
845.0,150983490.0,0.986997,-0.009906,-0.012829,0.159917,0.007613,0.021261,0.147022,0.0,,,,,,,,,,,,,,,,,,,,
846.0,151000157.0,0.986997,-0.009901,-0.012833,0.159917,-0.006978,0.019247,0.114446,0.0,,,,,,,,,,,,,,,,,,,,
847.0,151016824.0,0.986997,-0.009903,-0.012838,0.15992,0.000569,0.016911,0.154542,0.0,,,,,,,,,,,,,,,,,,,,
848.0,151033491.0,0.986996,-0.009898,-0.012843,0.159924,0.008712,0.020966,0.141331,0.0,,,,,,,,,,,,,,,,,,,,
849.0,151050158.0,0.986997,-0.009893,-0.012848,0.159918,0.015069,0.015692,0.155517,0.0,,,,,,,,,,,,,,,,,,,,
850.0,151066825.0,0.986998,-0.009887,-0.012849,0.159913,0.020117,0.029387,0.142315,0.0,,,,,,,,,,,,,,,,,,,,
851.0,151083492.0,0.986998,-0.009879,-0.012847,0.159916,0.035076,0.018809,0.156307,0.0,,,,,,,,,,,,,,,,,,,,
852.0,151100159.0,0.986997,-0.009885,-0.012857,0.159921,0.03778,0.031748,0.159854,0.0,,,,,,,,,,,,,,,,,,,,
853.0,151116826.0,0.986999,-0.009885,-0.01286,0.159909,0.039997,0.02476,0.154939,0.0,,,,,,,,,,,,,,,,,,,,
854.0,151133493.0,0.987,-0.009882,-0.01285,0.159903,0.038673,0.027321,0.155787,0.0,,,,,,,,,,,,,,,,,,,,
855.0,151150160.0,0.987,-0.009883,-0.012843,0.159904,0.028346,0.019626,0.141882,0.0,,,,,,,,,,,,,,,,,,,,
856.0,151166827.0,0.987,-0.00988,-0.012843,0.159905,0.035942,0.025073,0.155648,0.0,,,,,,,,,,,,,,,,,,,,
857.0,151183494.0,0.987,-0.009876,-0.012831,0.159904,-0.008058,0.01673,0.158607,0.0,,,,,,,,,,,,,,,,,,,,
858.0,151200161.0,0.987,-0.009875,-0.012822,0.159907,0.000334,0.010107,0.155362,0.0,,,,,,,,,,,,,,,,,,,,
859.0,151216828.0,0.986998,-0.009873,-0.012816,0.159914,0.003555,0.015696,0.162443,0.0,,,,,,,,,,,,,,,,,,,,
860.0,151233495.0,0.986998,-0.009869,-0.012813,0.159919,-0.007972,0.012921,0.155516,0.0,,,,,,,,,,,,,,,,,,,,
861.0,151250162.0,0.986999,-0.009865,-0.012808,0.159911,0.006716,0.021313,0.157359,0.0,,,,,,,,,,,,,,,,,,,,
862.0,151266829.0,0.987,-0.009877,-0.01281,0.159907,0.006724,0.03128,0.16521,0.0,,,,,,,,,,,,,,,,,,,,
863.0,151283496.0,0.986998,-0.009882,-0.012809,0.159918,0.004482,0.021583,0.134715,0.0,,,,,,,,,,,,,,,,,,,,
864.0,151300163.0,0.986998,-0.009885,-0.012803,0.159917,0.031415,0.02934,0.141648,0.0,,,,,,,,,,,,,,,,,,,,
865.0,151316830.0,0.986997,-0.009885,-0.012803,0.159925,0.042518,0.033752,0.150715,0.0,,,,,,,,,,,,,,,,,,,,
866.0,151333497.0,0.986996,-0.009892,-0.012803,0.159927,0.042637,0.041015,0.116357,0.0,,,,,,,,,,,,,,,,,,,,
867.0,151350164.0,0.986996,-0.009892,-0.012803,0.159927,0.032309,0.01915,0.157539,0.0,,,,,,,,,,,,,,,,,,,,
868.0,151366831.0,0.986997,-0.009892,-0.012806,0.159924,0.03008,0.014485,0.166283,0.0,,,,,,,,,,,,,,,,,,,,
869.0,151383498.0,0.986996,-0.0099,-0.012828,0.159927,0.03624,0.013927,0.169609,0.0,,,,,,,,,,,,,,,,,,,,
870.0,151400165.0,0.986995,-0.009888,-0.012828,0.159936,0.019259,0.022378,0.169601,0.0,,,,,,,,,,,,,,,,,,,,
871.0,151416832.0,0.986995,-0.009889,-0.012835,0.159934,0.016002,0.019826,0.175826,0.0,,,,,,,,,,,,,,,,,,,,
872.0,151433499.0,0.986995,-0.009887,-0.012835,0.159932,0.006231,0.026885,0.093566,0.0,,,,,,,,,,,,,,,,,,,,
873.0,151450166.0,0.986994,-0.009886,-0.012838,0.159937,0.020354,0.025351,0.136853,0.0,,,,,,,,,,,,,,,,,,,,
874.0,151466833.0,0.986996,-0.009887,-0.012835,0.159928,-0.003272,0.033232,0.121677,0.0,,,,,,,,,,,,,,,,,,,,
875.0,151483500.0,0.986996,-0.009876,-0.012833,0.159929,0.001047,0.017204,0.133618,0.0,,,,,,,,,,,,,,,,,,,,
876.0,151500167.0,0.986997,-0.009868,-0.01283,0.159924,-0.013257,0.02602,0.164905,0.0,,,,,,,,,,,,,,,,,,,,
877.0,151516834.0,0.986996,-0.009865,-0.012845,0.159926,0.003559,0.017032,0.165628,0.0,,,,,,,,,,,,,,,,,,,,
878.0,151533501.0,0.986996,-0.009864,-0.012851,0.159926,0.016466,0.020296,0.160649,0.0,,,,,,,,,,,,,,,,,,,,
879.0,151550168.0,0.986996,-0.009864,-0.012856,0.159925,0.021002,0.018745,0.162225,0.0,,,,,,,,,,,,,,,,,,,,
880.0,151566835.0,0.986995,-0.009857,-0.012853,0.159932,0.031064,0.014928,0.127895,0.0,,,,,,,,,,,,,,,,,,,,
881.0,151583502.0,0.986996,-0.00984,-0.012849,0.15993,0.024486,0.008105,0.180394,0.0,,,,,,,,,,,,,,,,,,,,
882.0,151600169.0,0.986994,-0.009845,-0.012843,0.159939,0.030884,0.028622,0.141899,0.0,,,,,,,,,,,,,,,,,,,,
883.0,151616836.0,0.986992,-0.009843,-0.012832,0.159953,0.033509,0.037339,0.13618,0.0,,,,,,,,,,,,,,,,,,,,
884.0,151633503.0,0.986992,-0.009843,-0.012825,0.159958,0.020401,0.044276,0.174811,0.0,,,,,,,,,,,,,,,,,,,,
885.0,151650170.0,0.986992,-0.00985,-0.012812,0.159956,0.003219,0.020745,0.151959,0.0,,,,,,,,,,,,,,,,,,,,
886.0,151666837.0,0.986991,-0.009848,-0.012814,0.159959,0.010212,0.029095,0.156199,0.0,,,,,,,,,,,,,,,,,,,,
887.0,151683504.0,0.986992,-0.009845,-0.012802,0.159955,-0.000232,0.011657,0.147338,0.0,,,,,,,,,,,,,,,,,,,,
888.0,151700171.0,0.986993,-0.009844,-0.012802,0.159952,-0.004485,0.003726,0.154449,0.0,,,,,,,,,,,,,,,,,,,,
889.0,151716838.0,0.986994,-0.009848,-0.012813,0.159944,0.004566,0.00206,0.134605,0.0,,,,,,,,,,,,,,,,,,,,
890.0,151733505.0,0.986994,-0.009841,-0.012826,0.159945,0.006315,0.002683,0.14526,0.0,,,,,,,,,,,,,,,,,,,,
891.0,151750172.0,0.986994,-0.009846,-0.012831,0.159941,0.011379,0.008426,0.120246,0.0,,,,,,,,,,,,,,,,,,,,
892.0,151766839.0,0.986993,-0.009843,-0.01284,0.159949,0.007366,0.02558,0.164676,0.0,,,,,,,,,,,,,,,,,,,,
893.0,151783506.0,0.98699,-0.009842,-0.012847,0.159966,0.020095,0.048588,0.137916,0.0,,,,,,,,,,,,,,,,,,,,
894.0,151800173.0,0.986989,-0.009845,-0.012844,0.159972,0.017738,0.025736,0.16326,0.0,,,,,,,,,,,,,,,,,,,,
895.0,151816840.0,0.986988,-0.009849,-0.012846,0.159976,0.030279,0.033352,0.133657,0.0,,,,,,,,,,,,,,,,,,,,
896.0,151833507.0,0.986986,-0.009848,-0.012862,0.159986,0.013916,0.024366,0.129455,0.0,,,,,,,,,,,,,,,,,,,,
897.0,151850174.0,0.986984,-0.009856,-0.012863,0.16,0.029243,0.007223,0.141115,0.0,,,,,,,,,,,,,,,,,,,,
898.0,151866841.0,0.986984,-0.009866,-0.012867,0.160002,0.019726,-0.005266,0.149191,0.0,,,,,,,,,,,,,,,,,,,,
899.0,151883508.0,0.986983,-0.009872,-0.012867,0.160003,-0.003858,-0.001433,0.154933,0.0,,,,,,,,,,,,,,,,,,,,
900.0,151900175.0,0.986982,-0.009874,-0.012863,0.160014,0.024247,0.030385,0.178306,0.0,,,,,,,,,,,,,,,,,,,,
901.0,151916842.0,0.986981,-0.009884,-0.012864,0.160015,0.015505,0.038525,0.174133,0.0,,,,,,,,,,,,,,,,,,,,
902.0,151933509.0,0.986981,-0.009891,-0.012867,0.160015,0.01238,0.040815,0.167535,0.0,,,,,,,,,,,,,,,,,,,,
903.0,151950176.0,0.986982,-0.009894,-0.012868,0.160007,0.029241,0.030678,0.146471,0.0,,,,,,,,,,,,,,,,,,,,
904.0,151966843.0,0.986984,-0.009898,-0.012878,0.159998,0.00862,0.035377,0.155013,0.0,,,,,,,,,,,,,,,,,,,,
905.0,151983510.0,0.986983,-0.009899,-0.01289,0.16,0.015374,0.011898,0.129292,0.0,,,,,,,,,,,,,,,,,,,,
906.0,152000177.0,0.986983,-0.009899,-0.0129,0.160003,0.016561,0.017377,0.180376,0.0,,,,,,,,,,,,,,,,,,,,
907.0,152016844.0,0.986982,-0.009901,-0.012907,0.160005,0.029703,-7.4e-05,0.185533,0.0,,,,,,,,,,,,,,,,,,,,
908.0,152033511.0,0.986981,-0.009897,-0.012907,0.160013,0.034396,-0.003281,0.158379,0.0,,,,,,,,,,,,,,,,,,,,
909.0,152050178.0,0.986981,-0.009893,-0.012923,0.160014,0.031962,0.012542,0.133647,0.0,,,,,,,,,,,,,,,,,,,,
910.0,152066845.0,0.986979,-0.009892,-0.01293,0.160021,0.02488,0.007565,0.12587,0.0,,,,,,,,,,,,,,,,,,,,
911.0,152083512.0,0.986979,-0.009908,-0.012944,0.160024,0.015536,0.039464,0.138965,0.0,,,,,,,,,,,,,,,,,,,,
912.0,152100179.0,0.986978,-0.009911,-0.012956,0.160027,-0.001167,0.044903,0.161067,0.0,,,,,,,,,,,,,,,,,,,,
913.0,152116846.0,0.986977,-0.009917,-0.012952,0.160029,-0.014202,0.03653,0.175169,0.0,,,,,,,,,,,,,,,,,,,,
914.0,152133513.0,0.986977,-0.009924,-0.012942,0.16003,-0.001731,0.034153,0.139686,0.0,,,,,,,,,,,,,,,,,,,,
915.0,152150180.0,0.986978,-0.009917,-0.01295,0.160023,0.015922,0.025997,0.157792,0.0,,,,,,,,,,,,,,,,,,,,
916.0,152166847.0,0.986979,-0.009908,-0.012955,0.160023,0.031588,0.020104,0.141859,0.0,,,,,,,,,,,,,,,,,,,,
917.0,152183514.0,0.98698,-0.009911,-0.012957,0.160016,0.026371,0.008809,0.141148,0.0,,,,,,,,,,,,,,,,,,,,
918.0,152200181.0,0.986981,-0.009916,-0.012955,0.160008,0.045975,0.009999,0.129646,0.0,,,,,,,,,,,,,,,,,,,,
919.0,152216848.0,0.986981,-0.00991,-0.012968,0.16001,0.039303,0.009505,0.151416,0.0,,,,,,,,,,,,,,,,,,,,
920.0,152233515.0,0.98698,-0.009915,-0.01297,0.160012,0.027539,0.018015,0.133402,0.0,,,,,,,,,,,,,,,,,,,,
921.0,152250182.0,0.986978,-0.009917,-0.012969,0.160022,0.034932,0.032381,0.154769,0.0,,,,,,,,,,,,,,,,,,,,
922.0,152266849.0,0.986978,-0.009917,-0.012951,0.160027,0.003239,0.047466,0.160376,0.0,,,,,,,,,,,,,,,,,,,,
923.0,152283516.0,0.986977,-0.009912,-0.012957,0.160032,-0.009863,0.050102,0.167692,0.0,,,,,,,,,,,,,,,,,,,,
924.0,152300183.0,0.986977,-0.009914,-0.012973,0.160031,0.002506,0.032242,0.140389,0.0,,,,,,,,,,,,,,,,,,,,
925.0,152316850.0,0.986978,-0.009911,-0.012988,0.160025,0.005921,0.04265,0.130997,0.0,,,,,,,,,,,,,,,,,,,,
926.0,152333517.0,0.986979,-0.009918,-0.01299,0.160015,0.004562,0.019637,0.151988,0.0,,,,,,,,,,,,,,,,,,,,
927.0,152350184.0,0.98698,-0.009921,-0.012984,0.160011,0.043841,0.005756,0.146568,0.0,,,,,,,,,,,,,,,,,,,,
928.0,152366851.0,0.986981,-0.009925,-0.012973,0.160006,0.026652,-0.001835,0.140092,0.0,,,,,,,,,,,,,,,,,,,,
929.0,152383518.0,0.986981,-0.009933,-0.012964,0.160004,0.012381,0.007661,0.128689,0.0,,,,,,,,,,,,,,,,,,,,
930.0,152400185.0,0.98698,-0.009932,-0.012973,0.160009,0.027332,0.040912,0.165009,0.0,,,,,,,,,,,,,,,,,,,,
931.0,152416852.0,0.98698,-0.009922,-0.012977,0.160013,0.025159,0.044852,0.151716,0.0,,,,,,,,,,,,,,,,,,,,
932.0,152433519.0,0.98698,-0.00992,-0.012985,0.160008,0.015914,0.050703,0.154932,0.0,,,,,,,,,,,,,,,,,,,,
933.0,152450186.0,0.986981,-0.009914,-0.012988,0.160005,0.024064,0.03975,0.133235,0.0,,,,,,,,,,,,,,,,,,,,
934.0,152466853.0,0.986983,-0.009912,-0.012974,0.159993,0.016956,0.023536,0.141496,0.0,,,,,,,,,,,,,,,,,,,,
935.0,152483520.0,0.986984,-0.009924,-0.012974,0.159989,0.004788,-0.004762,0.149201,0.0,,,,,,,,,,,,,,,,,,,,
936.0,152500187.0,0.987,-0.009924,-0.012906,0.159897,0.015686,-0.000609,0.14114,0.0,,,,,,,,,,,,,,,,,,,,
937.0,152516854.0,0.986999,-0.009922,-0.01291,0.159902,0.018717,-0.021659,0.131931,0.0,,,,,,,,,,,,,,,,,,,,
938.0,152533521.0,0.986997,-0.00992,-0.012916,0.15991,0.004618,-0.00267,0.139428,0.0,,,,,,,,,,,,,,,,,,,,
939.0,152550188.0,0.986996,-0.009936,-0.012916,0.159916,0.009388,0.00859,0.146803,0.0,,,,,,,,,,,,,,,,,,,,
940.0,152566855.0,0.986996,-0.009931,-0.012915,0.159918,0.011581,0.034865,0.151546,0.0,,,,,,,,,,,,,,,,,,,,
941.0,152583522.0,0.986995,-0.009924,-0.012928,0.159921,0.009796,0.037685,0.149714,0.0,,,,,,,,,,,,,,,,,,,,
942.0,152600189.0,0.986997,-0.009929,-0.01293,0.159912,0.029513,0.050386,0.146392,0.0,,,,,,,,,,,,,,,,,,,,
943.0,152616856.0,0.986996,-0.009929,-0.012928,0.159916,0.020055,0.025745,0.152481,0.0,,,,,,,,,,,,,,,,,,,,
944.0,152633523.0,0.986997,-0.009924,-0.012925,0.159911,0.033907,0.008841,0.158103,0.0,,,,,,,,,,,,,,,,,,,,
945.0,152650190.0,0.986997,-0.009927,-0.012931,0.159912,0.029749,0.001704,0.122899,0.0,,,,,,,,,,,,,,,,,,,,
946.0,152666857.0,0.986997,-0.009924,-0.012929,0.159907,0.033391,0.016069,0.147407,0.0,,,,,,,,,,,,,,,,,,,,
947.0,152683524.0,0.986996,-0.009926,-0.012921,0.159919,0.007896,-0.006522,0.161956,0.0,,,,,,,,,,,,,,,,,,,,
948.0,152700191.0,0.986996,-0.009932,-0.012917,0.159915,0.008276,0.024645,0.17351,0.0,,,,,,,,,,,,,,,,,,,,
949.0,152716858.0,0.986997,-0.009928,-0.012924,0.159912,-0.002562,0.023237,0.156761,0.0,,,,,,,,,,,,,,,,,,,,
950.0,152733525.0,0.986997,-0.009912,-0.012926,0.159914,0.012062,0.037797,0.133479,0.0,,,,,,,,,,,,,,,,,,,,
951.0,152750192.0,0.986998,-0.0099,-0.012926,0.159908,0.000611,0.045982,0.159122,0.0,,,,,,,,,,,,,,,,,,,,
952.0,152766859.0,0.986998,-0.009908,-0.012923,0.159905,0.021957,0.031027,0.149954,0.0,,,,,,,,,,,,,,,,,,,,
953.0,152783526.0,0.986998,-0.00991,-0.012914,0.159904,0.027538,0.009809,0.148166,0.0,,,,,,,,,,,,,,,,,,,,
954.0,152800193.0,0.986998,-0.009915,-0.012919,0.159903,0.023738,0.016778,0.150604,0.0,,,,,,,,,,,,,,,,,,,,
955.0,152816860.0,0.986997,-0.009911,-0.012916,0.159916,0.044817,-0.002725,0.155102,0.0,,,,,,,,,,,,,,,,,,,,
956.0,152833527.0,0.986996,-0.009914,-0.0129,0.15992,0.027758,-0.001506,0.150714,0.0,,,,,,,,,,,,,,,,,,,,
957.0,152850194.0,0.986995,-0.009911,-0.012897,0.159924,0.034381,0.012951,0.143909,0.0,,,,,,,,,,,,,,,,,,,,
958.0,152866861.0,0.986994,-0.009913,-0.012892,0.159935,0.020615,0.030815,0.155042,0.0,,,,,,,,,,,,,,,,,,,,
959.0,152883528.0,0.986995,-0.00992,-0.012902,0.159928,0.020446,0.02814,0.151124,0.0,,,,,,,,,,,,,,,,,,,,
960.0,152900195.0,0.986995,-0.009914,-0.012909,0.159923,0.008671,0.025175,0.124827,0.0,,,,,,,,,,,,,,,,,,,,
961.0,152916862.0,0.986995,-0.009923,-0.0129,0.159925,0.008338,0.041747,0.148072,0.0,,,,,,,,,,,,,,,,,,,,
962.0,152933529.0,0.986995,-0.009922,-0.012902,0.159925,0.004262,0.022561,0.147324,0.0,,,,,,,,,,,,,,,,,,,,
963.0,152950196.0,0.986996,-0.009922,-0.012907,0.159919,0.001424,0.026003,0.140371,0.0,,,,,,,,,,,,,,,,,,,,
964.0,152966863.0,0.986997,-0.009923,-0.012899,0.159911,0.011224,0.002279,0.167397,0.0,,,,,,,,,,,,,,,,,,,,
965.0,152983530.0,0.986998,-0.009917,-0.012914,0.159908,0.01168,0.015427,0.140869,0.0,,,,,,,,,,,,,,,,,,,,
966.0,153000197.0,0.986997,-0.009923,-0.012913,0.15991,0.013676,0.008688,0.153328,0.0,,,,,,,,,,,,,,,,,,,,
967.0,153016864.0,0.986997,-0.009911,-0.012923,0.159914,0.031749,0.016715,0.151442,0.0,,,,,,,,,,,,,,,,,,,,
968.0,153033531.0,0.986999,-0.009921,-0.012918,0.159899,0.036483,0.027319,0.154129,0.0,,,,,,,,,,,,,,,,,,,,
969.0,153050198.0,0.987,-0.009919,-0.012919,0.159893,0.028233,0.032662,0.14309,0.0,,,,,,,,,,,,,,,,,,,,
970.0,153066865.0,0.987,-0.00991,-0.012931,0.15989,0.021614,0.035086,0.157756,0.0,,,,,,,,,,,,,,,,,,,,
971.0,153083532.0,0.987,-0.00991,-0.012941,0.159892,0.028992,0.030593,0.171007,0.0,,,,,,,,,,,,,,,,,,,,
972.0,153100199.0,0.987,-0.009906,-0.012942,0.159894,0.014873,0.032864,0.154521,0.0,,,,,,,,,,,,,,,,,,,,
973.0,153116866.0,0.987,-0.009911,-0.012937,0.159889,0.001712,0.016684,0.132555,0.0,,,,,,,,,,,,,,,,,,,,
974.0,153133533.0,0.987002,-0.009912,-0.01293,0.159883,0.007158,0.024224,0.131678,0.0,,,,,,,,,,,,,,,,,,,,
975.0,153150200.0,0.987001,-0.009911,-0.01292,0.159889,0.010911,-0.0166,0.149129,0.0,,,,,,,,,,,,,,,,,,,,
976.0,153166867.0,0.987002,-0.009902,-0.012914,0.159884,0.016636,-0.003811,0.152227,0.0,,,,,,,,,,,,,,,,,,,,
977.0,153183534.0,0.987003,-0.009906,-0.01291,0.159878,0.011504,0.004341,0.169685,0.0,,,,,,,,,,,,,,,,,,,,
978.0,153200201.0,0.987003,-0.009902,-0.012907,0.159879,0.013495,0.012351,0.144106,0.0,,,,,,,,,,,,,,,,,,,,
979.0,153216868.0,0.987001,-0.009901,-0.012919,0.15989,0.024954,0.024616,0.12807,0.0,,,,,,,,,,,,,,,,,,,,
980.0,153233535.0,0.987002,-0.009904,-0.012919,0.159881,0.007439,0.045021,0.143367,0.0,,,,,,,,,,,,,,,,,,,,
981.0,153250202.0,0.987003,-0.009902,-0.012922,0.159876,0.03404,0.06226,0.162016,0.0,,,,,,,,,,,,,,,,,,,,
982.0,153266869.0,0.987001,-0.00991,-0.012913,0.159888,0.024252,0.022764,0.15102,0.0,,,,,,,,,,,,,,,,,,,,
983.0,153283536.0,0.987002,-0.009914,-0.012916,0.159883,0.01748,0.008851,0.140973,0.0,,,,,,,,,,,,,,,,,,,,
984.0,153300203.0,0.987002,-0.00992,-0.012908,0.159881,0.020968,0.010862,0.152099,0.0,,,,,,,,,,,,,,,,,,,,
985.0,153316870.0,0.987002,-0.009919,-0.012909,0.159882,0.021141,0.015885,0.142112,0.0,,,,,,,,,,,,,,,,,,,,
986.0,153333537.0,0.987001,-0.0099,-0.012918,0.15989,0.010174,0.02162,0.144066,0.0,,,,,,,,,,,,,,,,,,,,
987.0,153350204.0,0.987,-0.009911,-0.012932,0.159896,0.009109,0.019286,0.158442,0.0,,,,,,,,,,,,,,,,,,,,
988.0,153366871.0,0.986999,-0.009912,-0.012921,0.159899,0.018047,0.031968,0.155408,0.0,,,,,,,,,,,,,,,,,,,,
989.0,153383538.0,0.986998,-0.009903,-0.012931,0.159904,0.01616,0.041845,0.126361,0.0,,,,,,,,,,,,,,,,,,,,
990.0,153400205.0,0.986998,-0.009901,-0.012939,0.159908,0.003874,0.044554,0.15805,0.0,,,,,,,,,,,,,,,,,,,,
991.0,153416872.0,0.986998,-0.009897,-0.012938,0.159907,0.008719,0.027361,0.154818,0.0,,,,,,,,,,,,,,,,,,,,
992.0,153433539.0,0.986999,-0.009897,-0.012939,0.159897,0.02544,0.019348,0.147892,0.0,,,,,,,,,,,,,,,,,,,,
993.0,153450206.0,0.986999,-0.009896,-0.012945,0.159898,0.017683,0.010672,0.167675,0.0,,,,,,,,,,,,,,,,,,,,
994.0,153466873.0,0.986999,-0.009894,-0.012954,0.159898,0.018738,0.003653,0.148438,0.0,,,,,,,,,,,,,,,,,,,,
995.0,153483540.0,0.986998,-0.009899,-0.012951,0.159903,0.011954,0.000801,0.145034,0.0,,,,,,,,,,,,,,,,,,,,
996.0,153500207.0,0.986998,-0.009909,-0.012956,0.159901,0.013867,0.011312,0.141937,0.0,,,,,,,,,,,,,,,,,,,,
997.0,153516874.0,0.986998,-0.009902,-0.012948,0.159903,0.011413,0.022694,0.149237,0.0,,,,,,,,,,,,,,,,,,,,
998.0,153533541.0,0.986998,-0.009904,-0.012954,0.159901,0.006625,0.024475,0.162823,0.0,,,,,,,,,,,,,,,,,,,,
999.0,153550208.0,0.986998,-0.009899,-0.01295,0.159902,0.018434,0.025046,0.151124,0.0,,,,,,,,,,,,,,,,,,,,
1000.0,153566875.0,0.986996,-0.009891,-0.012948,0.159916,0.019952,0.031285,0.128304,0.0,,,,,,,,,,,,,,,,,,,,
1001.0,153583542.0,0.986997,-0.009895,-0.012951,0.159911,0.008724,0.021668,0.144284,0.0,,,,,,,,,,,,,,,,,,,,
1002.0,153600209.0,0.986998,-0.0099,-0.012954,0.159904,0.018865,0.007815,0.169159,0.0,,,,,,,,,,,,,,,,,,,,
1003.0,153616876.0,0.986998,-0.009901,-0.012959,0.159904,0.021337,0.017322,0.148895,0.0,,,,,,,,,,,,,,,,,,,,
1004.0,153633543.0,0.986998,-0.009909,-0.012965,0.159903,0.014692,0.001002,0.141388,0.0,,,,,,,,,,,,,,,,,,,,
1005.0,153650210.0,0.986998,-0.009918,-0.01296,0.1599,0.018003,-3.8e-05,0.154186,0.0,,,,,,,,,,,,,,,,,,,,
1006.0,153666877.0,0.986996,-0.00992,-0.01296,0.159915,0.001935,0.00326,0.151269,0.0,,,,,,,,,,,,,,,,,,,,
1007.0,153683544.0,0.986996,-0.00992,-0.012961,0.159917,0.014725,0.034755,0.126338,0.0,,,,,,,,,,,,,,,,,,,,
1008.0,153700211.0,0.986993,-0.009918,-0.01296,0.159933,0.018543,0.029084,0.161514,0.0,,,,,,,,,,,,,,,,,,,,
1009.0,153716878.0,0.986993,-0.009919,-0.012955,0.15993,0.016529,0.016843,0.129013,0.0,,,,,,,,,,,,,,,,,,,,
1010.0,153733545.0,0.986996,-0.009916,-0.012947,0.159918,0.019712,0.024126,0.146607,0.0,,,,,,,,,,,,,,,,,,,,
1011.0,153750212.0,0.986997,-0.009925,-0.012949,0.159905,0.017032,0.012097,0.146804,0.0,,,,,,,,,,,,,,,,,,,,
1012.0,153766879.0,0.986999,-0.00992,-0.01294,0.159898,0.031229,0.019624,0.15898,0.0,,,,,,,,,,,,,,,,,,,,
1013.0,153783546.0,0.987,-0.00993,-0.012937,0.159892,0.025761,0.008367,0.132554,0.0,,,,,,,,,,,,,,,,,,,,
1014.0,153800213.0,0.987001,-0.009942,-0.012938,0.159887,0.015769,0.01795,0.153,0.0,,,,,,,,,,,,,,,,,,,,
1015.0,153816880.0,0.987001,-0.009958,-0.012947,0.159883,0.01716,0.012455,0.157166,0.0,,,,,,,,,,,,,,,,,,,,
1016.0,153833547.0,0.987002,-0.009955,-0.012956,0.159877,0.016491,0.036871,0.161859,0.0,,,,,,,,,,,,,,,,,,,,
1017.0,153850214.0,0.987002,-0.009972,-0.012958,0.159872,0.022617,0.027934,0.144473,0.0,,,,,,,,,,,,,,,,,,,,
1018.0,153866881.0,0.987002,-0.009972,-0.012956,0.159874,0.025458,0.037669,0.140022,0.0,,,,,,,,,,,,,,,,,,,,
1019.0,153883548.0,0.987002,-0.009974,-0.01296,0.159877,0.003604,0.041481,0.135655,0.0,,,,,,,,,,,,,,,,,,,,
1020.0,153900215.0,0.987001,-0.009972,-0.012948,0.159879,0.008965,0.002775,0.157365,0.0,,,,,,,,,,,,,,,,,,,,
1021.0,153916882.0,0.987,-0.00998,-0.012947,0.159884,0.015524,0.011666,0.173338,0.0,,,,,,,,,,,,,,,,,,,,
1022.0,153933549.0,0.987002,-0.009979,-0.012942,0.159873,0.005777,0.013158,0.146775,0.0,,,,,,,,,,,,,,,,,,,,
1023.0,153950216.0,0.987003,-0.009974,-0.012944,0.159872,0.016535,0.005082,0.159276,0.0,,,,,,,,,,,,,,,,,,,,
1024.0,153966883.0,0.987004,-0.009982,-0.012941,0.159866,0.023879,0.012629,0.14432,0.0,,,,,,,,,,,,,,,,,,,,
1025.0,153983550.0,0.987003,-0.00999,-0.012941,0.15987,0.005982,0.018289,0.143373,0.0,,,,,,,,,,,,,,,,,,,,
1026.0,154000217.0,0.987002,-0.009991,-0.012933,0.159872,0.01909,0.046237,0.15792,0.0,,,,,,,,,,,,,,,,,,,,
1027.0,154016884.0,0.987002,-0.009982,-0.01293,0.159873,0.03894,0.044093,0.146469,0.0,,,,,,,,,,,,,,,,,,,,
1028.0,154033551.0,0.987004,-0.009984,-0.012935,0.15986,0.038729,0.027588,0.139955,0.0,,,,,,,,,,,,,,,,,,,,
1029.0,154050218.0,0.987006,-0.009984,-0.012934,0.159854,0.017504,0.010813,0.153749,0.0,,,,,,,,,,,,,,,,,,,,
1030.0,154066885.0,0.987006,-0.00998,-0.012925,0.159854,0.027089,0.004775,0.135491,0.0,,,,,,,,,,,,,,,,,,,,
1031.0,154083552.0,0.987006,-0.009978,-0.012919,0.159854,0.021734,0.018092,0.15907,0.0,,,,,,,,,,,,,,,,,,,,
1032.0,154100219.0,0.987005,-0.00998,-0.012925,0.159858,0.018813,0.029315,0.149384,0.0,,,,,,,,,,,,,,,,,,,,
1033.0,154116886.0,0.987006,-0.009982,-0.012928,0.159853,0.005836,0.032704,0.164981,0.0,,,,,,,,,,,,,,,,,,,,
1034.0,154133553.0,0.987005,-0.009986,-0.012928,0.159854,0.007105,0.019266,0.158064,0.0,,,,,,,,,,,,,,,,,,,,
1035.0,154150220.0,0.987005,-0.009993,-0.012938,0.159855,-0.001204,0.029548,0.155146,0.0,,,,,,,,,,,,,,,,,,,,
1036.0,154166887.0,0.987006,-0.010005,-0.012934,0.159852,-0.00143,0.018999,0.164593,0.0,,,,,,,,,,,,,,,,,,,,
1037.0,154183554.0,0.987005,-0.009999,-0.012944,0.159853,0.010292,0.011958,0.137164,0.0,,,,,,,,,,,,,,,,,,,,
1038.0,154200221.0,0.987006,-0.010003,-0.012942,0.159848,0.012727,0.032142,0.142823,0.0,,,,,,,,,,,,,,,,,,,,
1039.0,154216888.0,0.987007,-0.010006,-0.012945,0.159842,0.024598,0.01149,0.141376,0.0,,,,,,,,,,,,,,,,,,,,
1040.0,154233555.0,0.987007,-0.010008,-0.01294,0.159844,0.048546,0.024594,0.159887,0.0,,,,,,,,,,,,,,,,,,,,
1041.0,154250222.0,0.987007,-0.010007,-0.012928,0.159846,0.038392,0.020761,0.116463,0.0,,,,,,,,,,,,,,,,,,,,
1042.0,154266889.0,0.987006,-0.010012,-0.012926,0.159853,0.035983,0.017916,0.169534,0.0,,,,,,,,,,,,,,,,,,,,
1043.0,154283556.0,0.987005,-0.010016,-0.012933,0.159855,0.021975,0.016059,0.154422,0.0,,,,,,,,,,,,,,,,,,,,
1044.0,154300223.0,0.987004,-0.01002,-0.012935,0.15986,0.027323,0.039109,0.161932,0.0,,,,,,,,,,,,,,,,,,,,
1045.0,154316890.0,0.987004,-0.010023,-0.012931,0.159864,0.015356,0.049808,0.164174,0.0,,,,,,,,,,,,,,,,,,,,
1046.0,154333557.0,0.987003,-0.010021,-0.012927,0.159865,3.3e-05,0.039038,0.131663,0.0,,,,,,,,,,,,,,,,,,,,
1047.0,154350224.0,0.987004,-0.010022,-0.012927,0.159863,0.002767,0.051346,0.137103,0.0,,,,,,,,,,,,,,,,,,,,
1048.0,154366891.0,0.987005,-0.010016,-0.012926,0.159855,-0.00159,0.027535,0.159068,0.0,,,,,,,,,,,,,,,,,,,,
1049.0,154383558.0,0.987005,-0.010019,-0.012926,0.159852,-0.008827,0.026902,0.133461,0.0,,,,,,,,,,,,,,,,,,,,
1050.0,154400225.0,0.987005,-0.010013,-0.012927,0.159854,-0.007597,0.003512,0.171316,0.0,,,,,,,,,,,,,,,,,,,,
1051.0,154416892.0,0.987005,-0.010019,-0.012942,0.159852,0.02299,0.011198,0.162697,0.0,,,,,,,,,,,,,,,,,,,,
1052.0,154433559.0,0.987005,-0.010028,-0.012938,0.159852,0.043431,0.012032,0.152975,0.0,,,,,,,,,,,,,,,,,,,,
1053.0,154450226.0,0.987004,-0.010022,-0.012941,0.159861,0.051249,0.035424,0.155661,0.0,,,,,,,,,,,,,,,,,,,,
1054.0,154466893.0,0.987004,-0.010011,-0.012947,0.15986,0.047594,0.027976,0.14101,0.0,,,,,,,,,,,,,,,,,,,,
1055.0,154483560.0,0.987005,-0.010003,-0.01296,0.159853,0.025074,0.040182,0.159693,0.0,,,,,,,,,,,,,,,,,,,,
1056.0,154500227.0,0.986998,-0.009942,-0.01296,0.159897,0.021769,0.030208,0.1662,0.0,,,,,,,,,,,,,,,,,,,,
1057.0,154516894.0,0.986999,-0.009943,-0.012951,0.159892,0.003563,0.008938,0.148141,0.0,,,,,,,,,,,,,,,,,,,,
1058.0,154533561.0,0.986999,-0.009938,-0.012942,0.159899,0.009392,0.012219,0.140162,0.0,,,,,,,,,,,,,,,,,,,,
1059.0,154550228.0,0.986999,-0.009943,-0.012944,0.159896,0.001,0.013167,0.156,0.0,,,,,,,,,,,,,,,,,,,,
1060.0,154566895.0,0.986998,-0.009939,-0.012941,0.159901,-0.006032,0.012505,0.150173,0.0,,,,,,,,,,,,,,,,,,,,
1061.0,154583562.0,0.986999,-0.009947,-0.012942,0.159896,-0.014884,0.012705,0.12902,0.0,,,,,,,,,,,,,,,,,,,,
1062.0,154600229.0,0.986999,-0.009955,-0.012947,0.159896,-0.008267,0.014713,0.143361,0.0,,,,,,,,,,,,,,,,,,,,
1063.0,154616896.0,0.987,-0.009954,-0.012951,0.15989,-0.004962,0.014797,0.155417,0.0,,,,,,,,,,,,,,,,,,,,
1064.0,154633563.0,0.987002,-0.00995,-0.012958,0.159876,0.022961,0.035822,0.145815,0.0,,,,,,,,,,,,,,,,,,,,
1065.0,154650230.0,0.987002,-0.009946,-0.012959,0.159877,0.049316,0.037836,0.154002,0.0,,,,,,,,,,,,,,,,,,,,
1066.0,154666897.0,0.987003,-0.009946,-0.012954,0.15987,0.044758,0.027054,0.13361,0.0,,,,,,,,,,,,,,,,,,,,
1067.0,154683564.0,0.987003,-0.009946,-0.012952,0.159871,0.043362,0.011323,0.148964,0.0,,,,,,,,,,,,,,,,,,,,
1068.0,154700231.0,0.987005,-0.009949,-0.012948,0.159859,0.035956,0.011086,0.161321,0.0,,,,,,,,,,,,,,,,,,,,
1069.0,154716898.0,0.987005,-0.009945,-0.01295,0.159858,0.01562,0.016072,0.1494,0.0,,,,,,,,,,,,,,,,,,,,
1070.0,154733565.0,0.987005,-0.009949,-0.012938,0.159856,0.006936,0.016112,0.152049,0.0,,,,,,,,,,,,,,,,,,,,
1071.0,154750232.0,0.987005,-0.009951,-0.012921,0.159857,0.000424,0.019755,0.14534,0.0,,,,,,,,,,,,,,,,,,,,
1072.0,154766899.0,0.987004,-0.00995,-0.012922,0.159864,0.004873,0.022326,0.156636,0.0,,,,,,,,,,,,,,,,,,,,
1073.0,154783566.0,0.987003,-0.009939,-0.012921,0.15987,-0.011686,0.031769,0.141659,0.0,,,,,,,,,,,,,,,,,,,,
1074.0,154800233.0,0.987003,-0.009941,-0.01292,0.159872,0.008623,0.025459,0.139818,0.0,,,,,,,,,,,,,,,,,,,,
1075.0,154816900.0,0.987002,-0.009935,-0.012912,0.159881,0.002948,0.030636,0.15105,0.0,,,,,,,,,,,,,,,,,,,,
1076.0,154833567.0,0.987002,-0.009937,-0.012909,0.159882,0.01492,0.018862,0.132222,0.0,,,,,,,,,,,,,,,,,,,,
1077.0,154850234.0,0.987001,-0.009934,-0.012916,0.159884,0.031312,0.008663,0.144762,0.0,,,,,,,,,,,,,,,,,,,,
1078.0,154866901.0,0.987003,-0.009928,-0.012903,0.159873,0.043486,0.019384,0.159593,0.0,,,,,,,,,,,,,,,,,,,,
1079.0,154883568.0,0.987003,-0.009929,-0.012904,0.159874,0.042567,0.011356,0.152706,0.0,,,,,,,,,,,,,,,,,,,,
1080.0,154900235.0,0.987003,-0.009937,-0.012916,0.159872,0.034469,0.023459,0.145739,0.0,,,,,,,,,,,,,,,,,,,,
1081.0,154916902.0,0.987002,-0.00995,-0.012904,0.159876,0.033161,0.014304,0.145978,0.0,,,,,,,,,,,,,,,,,,,,
1082.0,154933569.0,0.987002,-0.009952,-0.012895,0.159883,0.015467,0.024684,0.141427,0.0,,,,,,,,,,,,,,,,,,,,
1083.0,154950236.0,0.987003,-0.009949,-0.012894,0.159875,0.007629,0.020687,0.148089,0.0,,,,,,,,,,,,,,,,,,,,
1084.0,154966903.0,0.987002,-0.009953,-0.012902,0.159878,-0.007052,0.037739,0.145932,0.0,,,,,,,,,,,,,,,,,,,,
1085.0,154983570.0,0.987001,-0.009952,-0.012894,0.159885,-0.001066,0.02377,0.131721,0.0,,,,,,,,,,,,,,,,,,,,
1086.0,155000237.0,0.987001,-0.009956,-0.012898,0.159884,-0.009187,0.017928,0.142846,0.0,,,,,,,,,,,,,,,,,,,,
1087.0,155016904.0,0.987001,-0.00996,-0.012901,0.159884,-0.003767,-0.002162,0.166693,0.0,,,,,,,,,,,,,,,,,,,,
1088.0,155033571.0,0.987,-0.009958,-0.012903,0.159892,0.017898,0.009304,0.155595,0.0,,,,,,,,,,,,,,,,,,,,
1089.0,155050238.0,0.987001,-0.009954,-0.012911,0.159886,0.024743,0.020806,0.152641,0.0,,,,,,,,,,,,,,,,,,,,
1090.0,155066905.0,0.987001,-0.009958,-0.012912,0.159888,0.022402,0.014118,0.146937,0.0,,,,,,,,,,,,,,,,,,,,
1091.0,155083572.0,0.987001,-0.009957,-0.012915,0.159885,0.043701,0.034479,0.137081,0.0,,,,,,,,,,,,,,,,,,,,
1092.0,155100239.0,0.987002,-0.009947,-0.012913,0.159878,0.052315,0.02654,0.159798,0.0,,,,,,,,,,,,,,,,,,,,
1093.0,155116906.0,0.987003,-0.009954,-0.012917,0.159875,0.040166,0.02771,0.141634,0.0,,,,,,,,,,,,,,,,,,,,
1094.0,155133573.0,0.987002,-0.009955,-0.012908,0.159882,0.025571,0.034276,0.174345,0.0,,,,,,,,,,,,,,,,,,,,
1095.0,155150240.0,0.987001,-0.009953,-0.012911,0.159885,0.007102,0.016649,0.138176,0.0,,,,,,,,,,,,,,,,,,,,
1096.0,155166907.0,0.987003,-0.009944,-0.012911,0.159874,0.013064,0.011137,0.118196,0.0,,,,,,,,,,,,,,,,,,,,
1097.0,155183574.0,0.987003,-0.009944,-0.012916,0.159875,-0.002112,-0.002661,0.158505,0.0,,,,,,,,,,,,,,,,,,,,
1098.0,155200241.0,0.987002,-0.00995,-0.012922,0.159878,-0.005784,0.009309,0.167627,0.0,,,,,,,,,,,,,,,,,,,,
1099.0,155216908.0,0.987001,-0.009945,-0.012918,0.159883,-0.005347,0.003887,0.15959,0.0,,,,,,,,,,,,,,,,,,,,
1100.0,155233575.0,0.987003,-0.009951,-0.012907,0.159873,-0.000348,0.022385,0.143419,0.0,,,,,,,,,,,,,,,,,,,,
1101.0,155250242.0,0.987005,-0.009954,-0.012909,0.15986,0.005088,0.029818,0.189446,0.0,,,,,,,,,,,,,,,,,,,,
1102.0,155266909.0,0.987005,-0.009957,-0.012916,0.159861,0.030077,0.028019,0.159251,0.0,,,,,,,,,,,,,,,,,,,,
1103.0,155283576.0,0.987006,-0.009954,-0.012918,0.159855,0.036904,0.033086,0.151498,0.0,,,,,,,,,,,,,,,,,,,,
1104.0,155300243.0,0.987007,-0.00996,-0.012909,0.159848,0.044742,0.025072,0.152048,0.0,,,,,,,,,,,,,,,,,,,,
1105.0,155316910.0,0.987008,-0.009962,-0.012914,0.159839,0.03746,0.028981,0.124084,0.0,,,,,,,,,,,,,,,,,,,,
1106.0,155333577.0,0.987009,-0.009959,-0.012918,0.159837,0.017977,0.036704,0.166485,0.0,,,,,,,,,,,,,,,,,,,,
1107.0,155350244.0,0.987009,-0.009961,-0.012914,0.159837,0.008415,0.023296,0.155443,0.0,,,,,,,,,,,,,,,,,,,,
1108.0,155366911.0,0.987008,-0.009964,-0.012911,0.159842,0.013764,0.017953,0.159593,0.0,,,,,,,,,,,,,,,,,,,,
1109.0,155383578.0,0.987008,-0.009968,-0.012919,0.159839,0.001157,0.014258,0.142231,0.0,,,,,,,,,,,,,,,,,,,,
1110.0,155400245.0,0.987009,-0.009966,-0.012918,0.159834,-0.001415,0.013373,0.162633,0.0,,,,,,,,,,,,,,,,,,,,
1111.0,155416912.0,0.987009,-0.009967,-0.012927,0.159831,-0.010178,0.01806,0.135473,0.0,,,,,,,,,,,,,,,,,,,,
1112.0,155433579.0,0.987009,-0.009977,-0.012919,0.159837,-0.004313,0.022677,0.146904,0.0,,,,,,,,,,,,,,,,,,,,
1113.0,155450246.0,0.987009,-0.009975,-0.012914,0.159834,-0.00215,0.016222,0.150379,0.0,,,,,,,,,,,,,,,,,,,,
1114.0,155466913.0,0.987008,-0.009974,-0.012901,0.15984,0.012541,0.032683,0.159844,0.0,,,,,,,,,,,,,,,,,,,,
1115.0,155483580.0,0.987008,-0.009978,-0.012891,0.15984,0.003928,0.011891,0.117677,0.0,,,,,,,,,,,,,,,,,,,,
1116.0,155500247.0,0.987008,-0.009984,-0.012887,0.15984,0.028932,0.024552,0.157813,0.0,,,,,,,,,,,,,,,,,,,,
1117.0,155516914.0,0.987008,-0.009984,-0.012879,0.159843,0.032629,0.011347,0.14427,0.0,,,,,,,,,,,,,,,,,,,,
1118.0,155533581.0,0.98701,-0.009982,-0.012879,0.159829,0.028026,0.023132,0.160908,0.0,,,,,,,,,,,,,,,,,,,,
1119.0,155550248.0,0.987009,-0.009978,-0.012865,0.159836,0.048283,0.026402,0.138438,0.0,,,,,,,,,,,,,,,,,,,,
1120.0,155566915.0,0.987009,-0.009984,-0.012864,0.159837,0.034932,0.013942,0.154568,0.0,,,,,,,,,,,,,,,,,,,,
1121.0,155583582.0,0.987007,-0.009977,-0.012862,0.159847,0.036281,0.026736,0.166914,0.0,,,,,,,,,,,,,,,,,,,,
